<?xml version='1.0' encoding='utf-8'?>
<ODM FileOID="ODM.DEFINE21.TEST.001" AsOfDateTime="2022-02-23T15:51:00.105548+00:00"
    CreationDateTime="2022-02-23T15:51:00.105574+00:00" ODMVersion="1.3.2" FileType="Snapshot"
    Originator="Sam Hume" SourceSystem="odmlib" SourceSystemVersion="0.2" def:Context="Other"
    xmlns="http://www.cdisc.org/ns/odm/v1.3" xmlns:xs="http://www.w3.org/2001/XMLSchema-instance"
    xmlns:xlink="http://www.w3.org/1999/xlink" xmlns:def="http://www.cdisc.org/ns/def/v2.1">
    <Study OID="ODM.T1DEXI">
        <GlobalVariables>
            <StudyName>T1DEXI</StudyName>
            <StudyDescription>The T1DEXI study was designed to create an aggregated dataset
                including exercise, CGM and other relevant data inputs related to glucose response
                to exercise for those living with type 1 diabetes.</StudyDescription>
            <ProtocolName>Type 1 Diabetes EXercise Initiative: The Effect of Exercise on Glycemic
                Control in Type 1 Diabetes Study</ProtocolName>
        </GlobalVariables>
        <MetaDataVersion OID="MDV.T1DEXI" Name="MDV T1DEXI"
            Description="Data Definitions for T1DEXI" def:DefineVersion="2.1.0">
            <def:Standards>
                <def:Standard OID="STD.1" Name="SDTMIG" Type="IG" Version="3.3" Status="Final"/>
                <def:Standard OID="STD.2" Name="SDTMIG-MD" Type="IG" Version="1.1" Status="Final"/>
                <def:Standard OID="STD.3" Name="CDISC/NCI" Type="CT" Version="2021-12-17"
                    Status="Final"/>
            </def:Standards>
            <def:AnnotatedCRF>
                <def:DocumentRef leafID="LF.acrf"/>
            </def:AnnotatedCRF>
            <def:SupplementalDoc>
                <def:DocumentRef leafID="LF.ReviewersGuide"/>
            </def:SupplementalDoc>
            <def:ValueListDef OID="VL.FA.FAORRES">
                <ItemRef ItemOID="IT.FA.FAORRES.AGE" Mandatory="No" OrderNumber="1">
                    <def:WhereClauseRef WhereClauseOID="WC.FA.FAORRES.AGE"/>
                </ItemRef>
                <ItemRef ItemOID="IT.FA.FAORRES.SICKTODY" Mandatory="No" OrderNumber="2">
                    <def:WhereClauseRef WhereClauseOID="WC.FA.FAORRES.SICKTODY"/>
                </ItemRef>
                <ItemRef ItemOID="IT.FA.FAORRES.INSCHFL" Mandatory="No" OrderNumber="3">
                    <def:WhereClauseRef WhereClauseOID="WC.FA.FAORRES.INSCHFL"/>
                </ItemRef>
                <ItemRef ItemOID="IT.FA.FAORRES.STRESTDY" Mandatory="No" OrderNumber="4">
                    <def:WhereClauseRef WhereClauseOID="WC.FA.FAORRES.STRESTDY"/>
                </ItemRef>
                <ItemRef ItemOID="IT.FA.FAORRES.SLEEPQLT" Mandatory="No" OrderNumber="5">
                    <def:WhereClauseRef WhereClauseOID="WC.FA.FAORRES.SLEEPQLT"/>
                </ItemRef>
            </def:ValueListDef>
            <def:ValueListDef OID="VL.FADX.FAOBJ">
                <ItemRef ItemOID="IT.FADX.FAOBJ.INSULIN-PUMP-OR-CLOSED-LOOP" Mandatory="No"
                    OrderNumber="1">
                    <def:WhereClauseRef WhereClauseOID="WC.FADX.FAOBJ.INSULIN-PUMP-OR-CLOSED-LOOP"/>
                </ItemRef>
                <ItemRef ItemOID="IT.FADX.FAOBJ.CGM" Mandatory="No" OrderNumber="2">
                    <def:WhereClauseRef WhereClauseOID="WC.FADX.FAOBJ.CGM"/>
                </ItemRef>
                <ItemRef ItemOID="IT.FADX.FAOBJ.CGM-Use-Last-Month" Mandatory="No" OrderNumber="3">
                    <def:WhereClauseRef WhereClauseOID="WC.FADX.FAOBJ.CGM-Use-Last-Month"/>
                </ItemRef>
            </def:ValueListDef>
            <def:ValueListDef OID="VL.SC.SCORRES">
                <ItemRef ItemOID="IT.SC.SCORRES.EDULEVEL" Mandatory="No" OrderNumber="1">
                    <def:WhereClauseRef WhereClauseOID="WC.SC.SCORRES.EDULEVEL"/>
                </ItemRef>
                <ItemRef ItemOID="IT.SC.SCORRES.INCMLVL" Mandatory="No" OrderNumber="2">
                    <def:WhereClauseRef WhereClauseOID="WC.SC.SCORRES.INCMLVL"/>
                </ItemRef>
            </def:ValueListDef>
            <def:WhereClauseDef OID="WC.FA.FAORRES.AGE">
                <RangeCheck SoftHard="Soft" def:ItemOID="IT.FA.FAORRES" Comparator="EQ">
                    <CheckValue>AGE</CheckValue>
                </RangeCheck>
            </def:WhereClauseDef>
            <def:WhereClauseDef OID="WC.FA.FAORRES.SICKTODY">
                <RangeCheck SoftHard="Soft" def:ItemOID="IT.FA.FAORRES" Comparator="EQ">
                    <CheckValue>SICKTODY</CheckValue>
                </RangeCheck>
            </def:WhereClauseDef>
            <def:WhereClauseDef OID="WC.FA.FAORRES.INSCHFL">
                <RangeCheck SoftHard="Soft" def:ItemOID="IT.FA.FAORRES" Comparator="EQ">
                    <CheckValue>INSCHFL</CheckValue>
                </RangeCheck>
            </def:WhereClauseDef>
            <def:WhereClauseDef OID="WC.FA.FAORRES.STRESTDY">
                <RangeCheck SoftHard="Soft" def:ItemOID="IT.FA.FAORRES" Comparator="EQ">
                    <CheckValue>STRESTDY</CheckValue>
                </RangeCheck>
            </def:WhereClauseDef>
            <def:WhereClauseDef OID="WC.FA.FAORRES.SLEEPQLT">
                <RangeCheck SoftHard="Soft" def:ItemOID="IT.FA.FAORRES" Comparator="EQ">
                    <CheckValue>SLEEPQLT</CheckValue>
                </RangeCheck>
            </def:WhereClauseDef>
            <def:WhereClauseDef OID="WC.FADX.FAOBJ.INSULIN-PUMP-OR-CLOSED-LOOP">
                <RangeCheck SoftHard="Soft" def:ItemOID="IT.FADX.FAOBJ" Comparator="EQ">
                    <CheckValue>INSULIN PUMP OR CLOSED LOOP</CheckValue>
                </RangeCheck>
            </def:WhereClauseDef>
            <def:WhereClauseDef OID="WC.FADX.FAOBJ.CGM">
                <RangeCheck SoftHard="Soft" def:ItemOID="IT.FADX.FAOBJ" Comparator="EQ">
                    <CheckValue>CGM</CheckValue>
                </RangeCheck>
            </def:WhereClauseDef>
            <def:WhereClauseDef OID="WC.FADX.FAOBJ.CGM-Use-Last-Month">
                <RangeCheck SoftHard="Soft" def:ItemOID="IT.FADX.FAOBJ" Comparator="EQ">
                    <CheckValue>CGM Use Last Month</CheckValue>
                </RangeCheck>
            </def:WhereClauseDef>
            <def:WhereClauseDef OID="WC.SC.SCORRES.EDULEVEL">
                <RangeCheck SoftHard="Soft" def:ItemOID="IT.SC.SCORRES" Comparator="EQ">
                    <CheckValue>EDULEVEL</CheckValue>
                </RangeCheck>
            </def:WhereClauseDef>
            <def:WhereClauseDef OID="WC.SC.SCORRES.INCMLVL">
                <RangeCheck SoftHard="Soft" def:ItemOID="IT.SC.SCORRES" Comparator="EQ">
                    <CheckValue>INCMLVL</CheckValue>
                </RangeCheck>
            </def:WhereClauseDef>
            <ItemGroupDef OID="IG.CM" Name="CM" Repeating="Yes" Domain="CM" SASDatasetName="CM"
                IsReferenceData="No" Purpose="Tabulation"
                def:Structure="One record per recorded medication occurrence or constant-dosing interval per subject"
                def:ArchiveLocationID="LF.CM" def:StandardOID="STD.1">
                <Description>
                    <TranslatedText xml:lang="en">Concomitant Medications</TranslatedText>
                </Description>
                <ItemRef ItemOID="IT.CM.STUDYID" Mandatory="Yes" OrderNumber="1" Role="Identifier"/>
                <ItemRef ItemOID="IT.CM.DOMAIN" Mandatory="Yes" OrderNumber="2" Role="Identifier"/>
                <ItemRef ItemOID="IT.CM.USUBJID" Mandatory="Yes" OrderNumber="3" Role="Identifier"/>
                <ItemRef ItemOID="IT.CM.CMSEQ" Mandatory="Yes" OrderNumber="4" Role="Identifier"/>
                <ItemRef ItemOID="IT.CM.CMGRPID" Mandatory="No" OrderNumber="5" Role="Identifier"/>
                <ItemRef ItemOID="IT.CM.CMTRT" Mandatory="Yes" OrderNumber="6" Role="Topic"/>
                <ItemRef ItemOID="IT.CM.CMCAT" Mandatory="No" OrderNumber="7"
                    Role="Grouping Qualifier"/>
                <ItemRef ItemOID="IT.CM.CMSCAT" Mandatory="No" OrderNumber="8"
                    Role="Grouping Qualifier"/>
                <ItemRef ItemOID="IT.CM.CMPRESP" Mandatory="No" OrderNumber="9"
                    Role="Variable Qualifier"/>
                <ItemRef ItemOID="IT.CM.CMSTRTPT" Mandatory="No" OrderNumber="10" Role="Timing"/>
                <ItemRef ItemOID="IT.CM.CMSTTPT" Mandatory="No" OrderNumber="11" Role="Timing"/>
                <ItemRef ItemOID="IT.CM.CMENRTPT" Mandatory="No" OrderNumber="12" Role="Timing"/>
                <ItemRef ItemOID="IT.CM.CMENTPT" Mandatory="No" OrderNumber="13" Role="Timing"/>
                <ItemRef ItemOID="IT.CM.DRDELMTD" Mandatory="No" OrderNumber="15"
                    Role="Non-standard Record Qualifier" def:IsNonStandard="Yes"/>
                <def:Class Name="INTERVENTIONS"/>
                <def:leaf ID="LF.CM" xlink:href="cm.xpt">
                    <def:title>cm.xpt</def:title>
                </def:leaf>
            </ItemGroupDef>
            <ItemGroupDef OID="IG.DM" Name="DM" Repeating="No" Domain="DM" SASDatasetName="DM"
                IsReferenceData="No" Purpose="Tabulation" def:Structure="One record per subject"
                def:ArchiveLocationID="LF.DM" def:StandardOID="STD.1">
                <Description>
                    <TranslatedText xml:lang="en">Demographics</TranslatedText>
                </Description>
                <ItemRef ItemOID="IT.DM.STUDYID" Mandatory="Yes" OrderNumber="1" Role="Identifier"/>
                <ItemRef ItemOID="IT.DM.DOMAIN" Mandatory="Yes" OrderNumber="2" Role="Identifier"/>
                <ItemRef ItemOID="IT.DM.USUBJID" Mandatory="Yes" OrderNumber="3" Role="Identifier"/>
                <ItemRef ItemOID="IT.DM.SUBJID" Mandatory="Yes" OrderNumber="4" Role="Topic"/>
                <ItemRef ItemOID="IT.DM.RFSTDTC" Mandatory="No" OrderNumber="5"
                    Role="Record Qualifier"/>
                <ItemRef ItemOID="IT.DM.RFENDTC" Mandatory="No" OrderNumber="6"
                    Role="Record Qualifier"/>
                <ItemRef ItemOID="IT.DM.RFXSTDTC" Mandatory="No" OrderNumber="7"
                    Role="Record Qualifier"/>
                <ItemRef ItemOID="IT.DM.RFXENDTC" Mandatory="No" OrderNumber="8"
                    Role="Record Qualifier"/>
                <ItemRef ItemOID="IT.DM.RFICDTC" Mandatory="No" OrderNumber="9"
                    Role="Record Qualifier"/>
                <ItemRef ItemOID="IT.DM.RFPENDTC" Mandatory="No" OrderNumber="10"
                    Role="Record Qualifier"/>
                <ItemRef ItemOID="IT.DM.DTHDTC" Mandatory="No" OrderNumber="11"
                    Role="Record Qualifier"/>
                <ItemRef ItemOID="IT.DM.DTHFL" Mandatory="No" OrderNumber="12"
                    Role="Record Qualifier"/>
                <ItemRef ItemOID="IT.DM.SITEID" Mandatory="Yes" OrderNumber="13"
                    Role="Record Qualifier"/>
                <ItemRef ItemOID="IT.DM.BRTHDTC" Mandatory="No" OrderNumber="14"
                    Role="Record Qualifier"/>
                <ItemRef ItemOID="IT.DM.AGE" Mandatory="No" OrderNumber="15" Role="Record Qualifier"/>
                <ItemRef ItemOID="IT.DM.AGEU" Mandatory="No" OrderNumber="16"
                    Role="Variable Qualifier"/>
                <ItemRef ItemOID="IT.DM.SEX" Mandatory="Yes" OrderNumber="17"
                    Role="Record Qualifier"/>
                <ItemRef ItemOID="IT.DM.RACE" Mandatory="No" OrderNumber="18"
                    Role="Record Qualifier"/>
                <ItemRef ItemOID="IT.DM.ETHNIC" Mandatory="No" OrderNumber="19"
                    Role="Record Qualifier"/>
                <ItemRef ItemOID="IT.DM.ARMCD" Mandatory="No" OrderNumber="20"
                    Role="Record Qualifier"/>
                <ItemRef ItemOID="IT.DM.ARM" Mandatory="No" OrderNumber="21"
                    Role="Synonym Qualifier"/>
                <ItemRef ItemOID="IT.DM.ACTARMCD" Mandatory="No" OrderNumber="22"
                    Role="Record Qualifier"/>
                <ItemRef ItemOID="IT.DM.ACTARM" Mandatory="No" OrderNumber="23"
                    Role="Synonym Qualifier"/>
                <ItemRef ItemOID="IT.DM.ARMNRS" Mandatory="No" OrderNumber="24"
                    Role="Record Qualifier"/>
                <ItemRef ItemOID="IT.DM.ACTARMUD" Mandatory="No" OrderNumber="25"
                    Role="Record Qualifier"/>
                <ItemRef ItemOID="IT.DM.COUNTRY" Mandatory="Yes" OrderNumber="26"
                    Role="Record Qualifier"/>
                <ItemRef ItemOID="IT.DM.DMDTC" Mandatory="No" OrderNumber="27" Role="Timing"/>
                <ItemRef ItemOID="IT.DM.DMDY" Mandatory="No" OrderNumber="28" Role="Timing"/>
                <def:Class Name="SPECIAL PURPOSE"/>
                <def:leaf ID="LF.DM" xlink:href="dm.xpt">
                    <def:title>dm.xpt</def:title>
                </def:leaf>
            </ItemGroupDef>
            <ItemGroupDef OID="IG.DX" Name="DX" Repeating="Yes" Domain="DX" SASDatasetName="DX"
                IsReferenceData="No" Purpose="Tabulation"
                def:Structure="One record per recorded intervention occurrence or constant treatment interval per subject"
                def:ArchiveLocationID="LF.DX" def:StandardOID="STD.2">
                <Description>
                    <TranslatedText xml:lang="en">Device Exposure</TranslatedText>
                </Description>
                <ItemRef ItemOID="IT.DX.STUDYID" Mandatory="Yes" OrderNumber="1" Role="Identifier"/>
                <ItemRef ItemOID="IT.DX.DOMAIN" Mandatory="Yes" OrderNumber="2" Role="Identifier"/>
                <ItemRef ItemOID="IT.DX.USUBJID" Mandatory="Yes" OrderNumber="3" Role="Identifier"/>
                <ItemRef ItemOID="IT.DX.SPDEVID" Mandatory="Yes" OrderNumber="4" Role="Identifier"/>
                <ItemRef ItemOID="IT.DX.DXSEQ" Mandatory="Yes" OrderNumber="5" Role="Identifier"/>
                <ItemRef ItemOID="IT.DX.DXGRPID" Mandatory="No" OrderNumber="6" Role="Identifier"/>
                <ItemRef ItemOID="IT.DX.DXTRT" Mandatory="Yes" OrderNumber="7" Role="Topic"/>
                <ItemRef ItemOID="IT.DX.DXCAT" Mandatory="No" OrderNumber="8"
                    Role="Grouping Qualifier"/>
                <ItemRef ItemOID="IT.DX.DXSCAT" Mandatory="No" OrderNumber="9"
                    Role="Grouping Qualifier"/>
                <ItemRef ItemOID="IT.DX.VISITNUM" Mandatory="No" OrderNumber="10" Role="Timing"/>
                <ItemRef ItemOID="IT.DX.VISIT" Mandatory="No" OrderNumber="11" Role="Timing"/>
                <ItemRef ItemOID="IT.DX.DXDTC" Mandatory="No" OrderNumber="12" Role="Timing"/>
                <ItemRef ItemOID="IT.DX.DXSTRTPT" Mandatory="No" OrderNumber="13" Role="Timing"/>
                <ItemRef ItemOID="IT.DX.DXENRTPT" Mandatory="No" OrderNumber="14" Role="Timing"/>
                <ItemRef ItemOID="IT.DX.DXEVINTX" Mandatory="No" OrderNumber="15" Role="Timing"/>
                <def:Class Name="INTERVENTIONS"/>
                <def:leaf ID="LF.DX" xlink:href="dx.xpt">
                    <def:title>dx.xpt</def:title>
                </def:leaf>
            </ItemGroupDef>
            <ItemGroupDef OID="IG.FA" Name="FA" Repeating="Yes" Domain="FA" SASDatasetName="FA"
                IsReferenceData="No" Purpose="Tabulation"
                def:Structure="One record per finding, per object, per time point, per visit per subject"
                def:ArchiveLocationID="LF.FA" def:StandardOID="STD.1">
                <Description>
                    <TranslatedText xml:lang="en">Findings About</TranslatedText>
                </Description>
                <ItemRef ItemOID="IT.FA.STUDYID" Mandatory="Yes" OrderNumber="1" Role="Identifier"/>
                <ItemRef ItemOID="IT.FA.DOMAIN" Mandatory="Yes" OrderNumber="2" Role="Identifier"/>
                <ItemRef ItemOID="IT.FA.USUBJID" Mandatory="Yes" OrderNumber="3" Role="Identifier"/>
                <ItemRef ItemOID="IT.FA.FASEQ" Mandatory="Yes" OrderNumber="4" Role="Identifier"/>
                <ItemRef ItemOID="IT.FA.FAGRPID" Mandatory="No" OrderNumber="5" Role="Identifier"/>
                <ItemRef ItemOID="IT.FA.FASPID" Mandatory="No" OrderNumber="6" Role="Identifier"/>
                <ItemRef ItemOID="IT.FA.FATESTCD" Mandatory="Yes" OrderNumber="7" Role="Topic"/>
                <ItemRef ItemOID="IT.FA.FATEST" Mandatory="Yes" OrderNumber="8"
                    Role="Synonym Qualifier"/>
                <ItemRef ItemOID="IT.FA.FAOBJ" Mandatory="Yes" OrderNumber="9"
                    Role="Record Qualifier"/>
                <ItemRef ItemOID="IT.FA.FACAT" Mandatory="No" OrderNumber="10"
                    Role="Grouping Qualifier"/>
                <ItemRef ItemOID="IT.FA.FAORRES" Mandatory="No" OrderNumber="11"
                    Role="Result Qualifier"/>
                <ItemRef ItemOID="IT.FA.FAORRESU" Mandatory="No" OrderNumber="12"
                    Role="Variable Qualifier"/>
                <ItemRef ItemOID="IT.FA.FASTRESC" Mandatory="No" OrderNumber="13"
                    Role="Result Qualifier"/>
                <ItemRef ItemOID="IT.FA.FASTRESN" Mandatory="No" OrderNumber="14"
                    Role="Result Qualifier"/>
                <ItemRef ItemOID="IT.FA.FASTRESU" Mandatory="No" OrderNumber="15"
                    Role="Variable Qualifier"/>
                <ItemRef ItemOID="IT.FA.FABLFL" Mandatory="No" OrderNumber="16"
                    Role="Record Qualifier"/>
                <ItemRef ItemOID="IT.FA.VISITNUM" Mandatory="No" OrderNumber="17" Role="Timing"/>
                <ItemRef ItemOID="IT.FA.VISIT" Mandatory="No" OrderNumber="18" Role="Timing"/>
                <ItemRef ItemOID="IT.FA.FADTC" Mandatory="No" OrderNumber="19" Role="Timing"/>
                <ItemRef ItemOID="IT.FA.BEDTIME" Mandatory="No" OrderNumber="21"
                    Role="Non-standard Record Qualifier" def:IsNonStandard="Yes"/>
                <ItemRef ItemOID="IT.FA.RISETIME" Mandatory="No" OrderNumber="22"
                    Role="Non-standard Record Qualifier" def:IsNonStandard="Yes"/>
                <def:Class Name="FINDINGS ABOUT"/>
                <def:leaf ID="LF.FA" xlink:href="fa.xpt">
                    <def:title>fa.xpt</def:title>
                </def:leaf>
            </ItemGroupDef>
            <ItemGroupDef OID="IG.FACM" Name="FACM" Repeating="Yes" Domain="FACM"
                SASDatasetName="FACM" IsReferenceData="No" Purpose="Tabulation"
                def:Structure="One record per finding, per object, per time point, per visit per subject"
                def:ArchiveLocationID="LF.FACM" def:StandardOID="STD.1">
                <Description>
                    <TranslatedText xml:lang="en">Findings About Concomitant
                        Medications</TranslatedText>
                </Description>
                <ItemRef ItemOID="IT.FACM.STUDYID" Mandatory="Yes" OrderNumber="1" Role="Identifier"/>
                <ItemRef ItemOID="IT.FACM.DOMAIN" Mandatory="Yes" OrderNumber="2" Role="Identifier"/>
                <ItemRef ItemOID="IT.FACM.USUBJID" Mandatory="Yes" OrderNumber="3" Role="Identifier"/>
                <ItemRef ItemOID="IT.FACM.SPDEVID" Mandatory="Yes" OrderNumber="4" Role="Identifier"/>
                <ItemRef ItemOID="IT.FACM.FASEQ" Mandatory="Yes" OrderNumber="5" Role="Identifier"/>
                <ItemRef ItemOID="IT.FACM.FALNKID" Mandatory="No" OrderNumber="6" Role="Identifier"/>
                <ItemRef ItemOID="IT.FACM.FATESTCD" Mandatory="Yes" OrderNumber="7" Role="Topic"/>
                <ItemRef ItemOID="IT.FACM.FATEST" Mandatory="Yes" OrderNumber="8"
                    Role="Synonym Qualifier"/>
                <ItemRef ItemOID="IT.FACM.FAOBJ" Mandatory="Yes" OrderNumber="9"
                    Role="Record Qualifier"/>
                <ItemRef ItemOID="IT.FACM.FACAT" Mandatory="No" OrderNumber="10"
                    Role="Grouping Qualifier"/>
                <ItemRef ItemOID="IT.FACM.FAORRES" Mandatory="No" OrderNumber="11"
                    Role="Result Qualifier"/>
                <ItemRef ItemOID="IT.FACM.FAORRESU" Mandatory="No" OrderNumber="12"
                    Role="Variable Qualifier"/>
                <ItemRef ItemOID="IT.FACM.FASTRESC" Mandatory="No" OrderNumber="13"
                    Role="Result Qualifier"/>
                <ItemRef ItemOID="IT.FACM.FASTRESN" Mandatory="No" OrderNumber="14"
                    Role="Result Qualifier"/>
                <ItemRef ItemOID="IT.FACM.FASTRESU" Mandatory="No" OrderNumber="15"
                    Role="Variable Qualifier"/>
                <ItemRef ItemOID="IT.FACM.FADTC" Mandatory="No" OrderNumber="16" Role="Timing"/>
                <ItemRef ItemOID="IT.FACM.FADUR" Mandatory="No" OrderNumber="17" Role="Timing"/>
                <ItemRef ItemOID="IT.FACM.INSDVSRC" Mandatory="No" OrderNumber="18"
                    Role="Non-standard Record Qualifier" def:IsNonStandard="Yes"/>
                <ItemRef ItemOID="IT.FACM.INSSTYPE" Mandatory="No" OrderNumber="19"
                    Role="Non-standard Record Qualifier" def:IsNonStandard="Yes"/>
                <ItemRef ItemOID="IT.FACM.INSNMBOL" Mandatory="No" OrderNumber="20"
                    Role="Non-standard Record Qualifier" def:IsNonStandard="Yes"/>
                <ItemRef ItemOID="IT.FACM.INSEXBOL" Mandatory="No" OrderNumber="21"
                    Role="Non-standard Record Qualifier" def:IsNonStandard="Yes"/>
                <def:Class Name="FINDINGS ABOUT"/>
                <def:leaf ID="LF.FACM" xlink:href="facm.xpt">
                    <def:title>facm.xpt</def:title>
                </def:leaf>
            </ItemGroupDef>
            <ItemGroupDef OID="IG.FADX" Name="FADX" Repeating="Yes" Domain="FADX"
                SASDatasetName="FADX" IsReferenceData="No" Purpose="Tabulation"
                def:Structure="One record per finding, per object, per time point, per visit per subject"
                def:ArchiveLocationID="LF.FADX" def:StandardOID="STD.1">
                <Description>
                    <TranslatedText xml:lang="en">Findings About Device Exposure</TranslatedText>
                </Description>
                <ItemRef ItemOID="IT.FADX.STUDYID" Mandatory="Yes" OrderNumber="1" Role="Identifier"/>
                <ItemRef ItemOID="IT.FADX.DOMAIN" Mandatory="Yes" OrderNumber="2" Role="Identifier"/>
                <ItemRef ItemOID="IT.FADX.USUBJID" Mandatory="Yes" OrderNumber="3" Role="Identifier"/>
                <ItemRef ItemOID="IT.FADX.FASEQ" Mandatory="Yes" OrderNumber="4" Role="Identifier"/>
                <ItemRef ItemOID="IT.FADX.FAGRPID" Mandatory="No" OrderNumber="5" Role="Identifier"/>
                <ItemRef ItemOID="IT.FADX.FASPID" Mandatory="No" OrderNumber="6" Role="Identifier"/>
                <ItemRef ItemOID="IT.FADX.FATESTCD" Mandatory="Yes" OrderNumber="7" Role="Topic"/>
                <ItemRef ItemOID="IT.FADX.FATEST" Mandatory="Yes" OrderNumber="8"
                    Role="Synonym Qualifier"/>
                <ItemRef ItemOID="IT.FADX.FAOBJ" Mandatory="Yes" OrderNumber="9"
                    Role="Record Qualifier"/>
                <ItemRef ItemOID="IT.FADX.FACAT" Mandatory="No" OrderNumber="10"
                    Role="Grouping Qualifier"/>
                <ItemRef ItemOID="IT.FADX.FASCAT" Mandatory="No" OrderNumber="11"
                    Role="Grouping Qualifier"/>
                <ItemRef ItemOID="IT.FADX.FAORRES" Mandatory="No" OrderNumber="12"
                    Role="Result Qualifier"/>
                <ItemRef ItemOID="IT.FADX.FAORRESU" Mandatory="No" OrderNumber="13"
                    Role="Variable Qualifier"/>
                <ItemRef ItemOID="IT.FADX.FASTRESC" Mandatory="No" OrderNumber="14"
                    Role="Result Qualifier"/>
                <ItemRef ItemOID="IT.FADX.FASTRESN" Mandatory="No" OrderNumber="15"
                    Role="Result Qualifier"/>
                <ItemRef ItemOID="IT.FADX.FASTRESU" Mandatory="No" OrderNumber="16"
                    Role="Variable Qualifier"/>
                <ItemRef ItemOID="IT.FADX.FABLFL" Mandatory="No" OrderNumber="17"
                    Role="Record Qualifier"/>
                <ItemRef ItemOID="IT.FADX.FADTC" Mandatory="No" OrderNumber="18" Role="Timing"/>
                <ItemRef ItemOID="IT.FADX.FAEVLINT" Mandatory="No" OrderNumber="19" Role="Timing"/>
                <ItemRef ItemOID="IT.FADX.DISINSEX" Mandatory="No" OrderNumber="20"
                    Role="Non-standard Record Qualifier" def:IsNonStandard="Yes"/>
                <ItemRef ItemOID="IT.FADX.SUSPINS" Mandatory="No" OrderNumber="21"
                    Role="Non-standard Record Qualifier" def:IsNonStandard="Yes"/>
                <def:Class Name="FINDINGS ABOUT"/>
                <def:leaf ID="LF.FADX" xlink:href="fadx.xpt">
                    <def:title>fadx.xpt</def:title>
                </def:leaf>
            </ItemGroupDef>
            <ItemGroupDef OID="IG.FAML" Name="FAML" Repeating="Yes" Domain="FAML"
                SASDatasetName="FAML" IsReferenceData="No" Purpose="Tabulation"
                def:Structure="One record per finding, per object, per time point, per visit per subject"
                def:ArchiveLocationID="LF.FAML" def:StandardOID="STD.1">
                <Description>
                    <TranslatedText xml:lang="en">Findings About Meal Data</TranslatedText>
                </Description>
                <ItemRef ItemOID="IT.FAML.STUDYID" Mandatory="Yes" OrderNumber="1" Role="Identifier"/>
                <ItemRef ItemOID="IT.FAML.DOMAIN" Mandatory="Yes" OrderNumber="2" Role="Identifier"/>
                <ItemRef ItemOID="IT.FAML.USUBJID" Mandatory="Yes" OrderNumber="3" Role="Identifier"/>
                <ItemRef ItemOID="IT.FAML.FASEQ" Mandatory="Yes" OrderNumber="4" Role="Identifier"/>
                <ItemRef ItemOID="IT.FAML.FAGRPID" Mandatory="No" OrderNumber="5" Role="Identifier"/>
                <ItemRef ItemOID="IT.FAML.FASPID" Mandatory="No" OrderNumber="6" Role="Identifier"/>
                <ItemRef ItemOID="IT.FAML.FALINKID" Mandatory="No" OrderNumber="7"/>
                <ItemRef ItemOID="IT.FAML.FATESTCD" Mandatory="Yes" OrderNumber="8" Role="Topic"/>
                <ItemRef ItemOID="IT.FAML.FATEST" Mandatory="Yes" OrderNumber="9"
                    Role="Synonym Qualifier"/>
                <ItemRef ItemOID="IT.FAML.FAOBJ" Mandatory="Yes" OrderNumber="10"
                    Role="Record Qualifier"/>
                <ItemRef ItemOID="IT.FAML.FACAT" Mandatory="No" OrderNumber="11"
                    Role="Grouping Qualifier"/>
                <ItemRef ItemOID="IT.FAML.FASCAT" Mandatory="No" OrderNumber="12"
                    Role="Grouping Qualifier"/>
                <ItemRef ItemOID="IT.FAML.FAORRES" Mandatory="No" OrderNumber="13"
                    Role="Result Qualifier"/>
                <ItemRef ItemOID="IT.FAML.FAORRESU" Mandatory="No" OrderNumber="14"
                    Role="Variable Qualifier"/>
                <ItemRef ItemOID="IT.FAML.FASTRESC" Mandatory="No" OrderNumber="15"
                    Role="Result Qualifier"/>
                <ItemRef ItemOID="IT.FAML.FASTRESN" Mandatory="No" OrderNumber="16"
                    Role="Result Qualifier"/>
                <ItemRef ItemOID="IT.FAML.FASTRESU" Mandatory="No" OrderNumber="17"
                    Role="Variable Qualifier"/>
                <ItemRef ItemOID="IT.FAML.FAMETHOD" Mandatory="No" OrderNumber="18"/>
                <ItemRef ItemOID="IT.FAML.FAANMETH" Mandatory="No" OrderNumber="19"/>
                <ItemRef ItemOID="IT.FAML.VISITNUM" Mandatory="No" OrderNumber="20" Role="Timing"/>
                <ItemRef ItemOID="IT.FAML.VISIT" Mandatory="No" OrderNumber="21" Role="Timing"/>
                <ItemRef ItemOID="IT.FAML.TAETORD" Mandatory="No" OrderNumber="22" Role="Timing"/>
                <ItemRef ItemOID="IT.FAML.FADTC" Mandatory="No" OrderNumber="23" Role="Timing"/>
                <ItemRef ItemOID="IT.FAML.MLSVGNUM" Mandatory="No" OrderNumber="24"
                    Role="Non-standard Record Qualifier" def:IsNonStandard="Yes"/>
                <def:Class Name="FINDINGS ABOUT"/>
                <def:leaf ID="LF.FAML" xlink:href="faml.xpt">
                    <def:title>faml.xpt</def:title>
                </def:leaf>
            </ItemGroupDef>
            <ItemGroupDef OID="IG.FAPR" Name="FAPR" Repeating="Yes" Domain="FAPR"
                SASDatasetName="FAPR" IsReferenceData="No" Purpose="Tabulation"
                def:Structure="One record per finding, per object, per time point, per visit per subject"
                def:ArchiveLocationID="LF.FAPR" def:StandardOID="STD.1">
                <Description>
                    <TranslatedText xml:lang="en">Findings About Procedures</TranslatedText>
                </Description>
                <ItemRef ItemOID="IT.FAPR.STUDYID" Mandatory="Yes" OrderNumber="1" Role="Identifier"/>
                <ItemRef ItemOID="IT.FAPR.DOMAIN" Mandatory="Yes" OrderNumber="2" Role="Identifier"/>
                <ItemRef ItemOID="IT.FAPR.USUBJID" Mandatory="Yes" OrderNumber="3" Role="Identifier"/>
                <ItemRef ItemOID="IT.FAPR.FASEQ" Mandatory="Yes" OrderNumber="4" Role="Identifier"/>
                <ItemRef ItemOID="IT.FAPR.FALNKID" Mandatory="No" OrderNumber="5" Role="Identifier"/>
                <ItemRef ItemOID="IT.FAPR.FATESTCD" Mandatory="Yes" OrderNumber="6" Role="Topic"/>
                <ItemRef ItemOID="IT.FAPR.FATEST" Mandatory="Yes" OrderNumber="7"
                    Role="Synonym Qualifier"/>
                <ItemRef ItemOID="IT.FAPR.FAOBJ" Mandatory="Yes" OrderNumber="8"
                    Role="Record Qualifier"/>
                <ItemRef ItemOID="IT.FAPR.FACAT" Mandatory="No" OrderNumber="9"
                    Role="Grouping Qualifier"/>
                <ItemRef ItemOID="IT.FAPR.FAORRES" Mandatory="No" OrderNumber="10"
                    Role="Result Qualifier"/>
                <ItemRef ItemOID="IT.FAPR.FASTRESC" Mandatory="No" OrderNumber="11"
                    Role="Result Qualifier"/>
                <ItemRef ItemOID="IT.FAPR.FASTRESN" Mandatory="No" OrderNumber="12"
                    Role="Result Qualifier"/>
                <ItemRef ItemOID="IT.FAPR.FADTC" Mandatory="No" OrderNumber="13" Role="Timing"/>
                <ItemRef ItemOID="IT.FAPR.FAENDTC" Mandatory="No" OrderNumber="14" Role="Timing"/>
                <def:Class Name="FINDINGS ABOUT"/>
                <def:leaf ID="LF.FAPR" xlink:href="fapr.xpt">
                    <def:title>fapr.xpt</def:title>
                </def:leaf>
            </ItemGroupDef>
            <ItemGroupDef OID="IG.LB" Name="LB" Repeating="Yes" Domain="LB" SASDatasetName="LB"
                IsReferenceData="No" Purpose="Tabulation"
                def:Structure="One record per analyte per visit per subject"
                def:ArchiveLocationID="LF.LB" def:StandardOID="STD.1">
                <Description>
                    <TranslatedText xml:lang="en">Laboratory Tests Results</TranslatedText>
                </Description>
                <ItemRef ItemOID="IT.LB.STUDYID" Mandatory="Yes" OrderNumber="1" Role="Identifier"/>
                <ItemRef ItemOID="IT.LB.DOMAIN" Mandatory="Yes" OrderNumber="2" Role="Identifier"/>
                <ItemRef ItemOID="IT.LB.USUBJID" Mandatory="Yes" OrderNumber="3" Role="Identifier"/>
                <ItemRef ItemOID="IT.LB.LBSEQ" Mandatory="Yes" OrderNumber="4" Role="Identifier"/>
                <ItemRef ItemOID="IT.LB.LBTESTCD" Mandatory="Yes" OrderNumber="5" Role="Topic"/>
                <ItemRef ItemOID="IT.LB.LBTEST" Mandatory="Yes" OrderNumber="6"
                    Role="Synonym Qualifier"/>
                <ItemRef ItemOID="IT.LB.LBCAT" Mandatory="No" OrderNumber="7"
                    Role="Grouping Qualifier"/>
                <ItemRef ItemOID="IT.LB.LBORRES" Mandatory="No" OrderNumber="8"
                    Role="Result Qualifier"/>
                <ItemRef ItemOID="IT.LB.LBORRESU" Mandatory="No" OrderNumber="9"
                    Role="Variable Qualifier"/>
                <ItemRef ItemOID="IT.LB.LBSTRESC" Mandatory="No" OrderNumber="10"
                    Role="Result Qualifier"/>
                <ItemRef ItemOID="IT.LB.LBSTRESN" Mandatory="No" OrderNumber="11"
                    Role="Result Qualifier"/>
                <ItemRef ItemOID="IT.LB.LBSTRESU" Mandatory="No" OrderNumber="12"
                    Role="Variable Qualifier"/>
                <ItemRef ItemOID="IT.LB.VISITNUM" Mandatory="No" OrderNumber="13" Role="Timing"/>
                <ItemRef ItemOID="IT.LB.VISIT" Mandatory="No" OrderNumber="14" Role="Timing"/>
                <ItemRef ItemOID="IT.LB.VISITDY" Mandatory="No" OrderNumber="15" Role="Timing"/>
                <ItemRef ItemOID="IT.LB.TAETORD" Mandatory="No" OrderNumber="16" Role="Timing"/>
                <ItemRef ItemOID="IT.LB.EPOCH" Mandatory="No" OrderNumber="17" Role="Timing"/>
                <ItemRef ItemOID="IT.LB.LBSOURCE" Mandatory="No" OrderNumber="18"
                    Role="Non-Standard Record Qualifier" def:IsNonStandard="Yes"/>
                <ItemRef ItemOID="IT.LB.LBCRNORD" Mandatory="No" OrderNumber="19"
                    Role="Non-Standard Record Qualifier" def:IsNonStandard="Yes"/>
                <ItemRef ItemOID="IT.LB.LBSETTING" Mandatory="No" OrderNumber="20"
                    Role="Non-Standard Record Qualifier" def:IsNonStandard="Yes"/>
                <ItemRef ItemOID="IT.LB.LBTMINT" Mandatory="No" OrderNumber="21"
                    Role="Non-Standard Timing" def:IsNonStandard="Yes"/>
                <def:Class Name="FINDINGS"/>
                <def:leaf ID="LF.LB" xlink:href="lb.xpt">
                    <def:title>lb.xpt</def:title>
                </def:leaf>
            </ItemGroupDef>
            <ItemGroupDef OID="IG.MH" Name="MH" Repeating="Yes" Domain="MH" SASDatasetName="MH"
                IsReferenceData="No" Purpose="Tabulation"
                def:Structure="One record per medical history event per subject"
                def:ArchiveLocationID="LF.MH" def:StandardOID="STD.1">
                <Description>
                    <TranslatedText xml:lang="en">Medical History</TranslatedText>
                </Description>
                <def:Class Name="EVENTS"/>
                <def:leaf ID="LF.MH" xlink:href="mh.xpt">
                    <def:title>mh.xpt</def:title>
                </def:leaf>
            </ItemGroupDef>
            <ItemGroupDef OID="IG.ML" Name="ML" Repeating="Yes" Domain="ML" SASDatasetName="ML"
                IsReferenceData="No" Purpose="Tabulation"
                def:Structure="One record per food product occurrence or constant intake interval per subject"
                def:ArchiveLocationID="LF.ML" def:StandardOID="STD.1">
                <Description>
                    <TranslatedText xml:lang="en">Meal Data</TranslatedText>
                </Description>
                <ItemRef ItemOID="IT.ML.STUDYID" Mandatory="Yes" OrderNumber="1" Role="Identifier"/>
                <ItemRef ItemOID="IT.ML.DOMAIN" Mandatory="Yes" OrderNumber="2" Role="Identifier"/>
                <ItemRef ItemOID="IT.ML.USUBJID" Mandatory="Yes" OrderNumber="3" Role="Identifier"/>
                <ItemRef ItemOID="IT.ML.MLSEQ" Mandatory="Yes" OrderNumber="4" Role="Identifier"/>
                <ItemRef ItemOID="IT.ML.MLLNKID" Mandatory="No" OrderNumber="5"/>
                <ItemRef ItemOID="IT.ML.MLGRPID" Mandatory="No" OrderNumber="6" Role="Identifier"/>
                <ItemRef ItemOID="IT.ML.MLTRT" Mandatory="Yes" OrderNumber="7" Role="Topic"/>
                <ItemRef ItemOID="IT.ML.MLCAT" Mandatory="No" OrderNumber="8"
                    Role="Grouping Qualifier"/>
                <ItemRef ItemOID="IT.ML.MLDOSE" Mandatory="No" OrderNumber="9"
                    Role="Record Qualifier"/>
                <ItemRef ItemOID="IT.ML.MLDOSTOT" Mandatory="No" OrderNumber="10"/>
                <ItemRef ItemOID="IT.ML.MLDOSU" Mandatory="No" OrderNumber="11"
                    Role="Variable Qualifier"/>
                <ItemRef ItemOID="IT.ML.MLDOSFRQ" Mandatory="No" OrderNumber="12"
                    Role="Variable Qualified of --DOSE"/>
                <ItemRef ItemOID="IT.ML.VISITNUM" Mandatory="No" OrderNumber="13" Role="Timing"/>
                <ItemRef ItemOID="IT.ML.VISIT" Mandatory="No" OrderNumber="14" Role="Timing"/>
                <ItemRef ItemOID="IT.ML.MLDTC" Mandatory="No" OrderNumber="15" Role="Timing"/>
                <ItemRef ItemOID="IT.ML.MLSVGNUM" Mandatory="No" OrderNumber="16"
                    Role="Non-standard Record Qualifier" def:IsNonStandard="Yes"/>
                <ItemRef ItemOID="IT.ML.MLDECDCD" Mandatory="No" OrderNumber="17"
                    Role="Non-standard Variable Qualifier of --DECOD" def:IsNonStandard="Yes"/>
                <ItemRef ItemOID="IT.ML.MLDNAMVR" Mandatory="No" OrderNumber="18"
                    Role="Non-standard Record Qualifier" def:IsNonStandard="Yes"/>
                <def:Class Name="INTERVENTIONS"/>
                <def:leaf ID="LF.ML" xlink:href="ml.xpt">
                    <def:title>ml.xpt</def:title>
                </def:leaf>
            </ItemGroupDef>
            <ItemGroupDef OID="IG.PR" Name="PR" Repeating="Yes" Domain="PR" SASDatasetName="PR"
                IsReferenceData="No" Purpose="Tabulation"
                def:Structure="One record per recorded procedure per occurrence per subject"
                def:ArchiveLocationID="LF.PR" def:StandardOID="STD.1">
                <Description>
                    <TranslatedText xml:lang="en">Procedures</TranslatedText>
                </Description>
                <ItemRef ItemOID="IT.PR.STUDYID" Mandatory="Yes" OrderNumber="1" Role="Identifier"/>
                <ItemRef ItemOID="IT.PR.DOMAIN" Mandatory="Yes" OrderNumber="2" Role="Identifier"/>
                <ItemRef ItemOID="IT.PR.USUBJID" Mandatory="Yes" OrderNumber="3" Role="Identifier"/>
                <ItemRef ItemOID="IT.PR.PRSEQ" Mandatory="Yes" OrderNumber="4" Role="Identifier"/>
                <ItemRef ItemOID="IT.PR.PRLNKID" Mandatory="No" OrderNumber="5" Role="Identifier"/>
                <ItemRef ItemOID="IT.PR.PRGRPID" Mandatory="No" OrderNumber="6" Role="Identifier"/>
                <ItemRef ItemOID="IT.PR.PRLNKGRP" Mandatory="No" OrderNumber="7" Role="Identifier"/>
                <ItemRef ItemOID="IT.PR.PRTRT" Mandatory="Yes" OrderNumber="8" Role="Topic"/>
                <ItemRef ItemOID="IT.PR.PRDECOD" Mandatory="No" OrderNumber="9"
                    Role="Synonym Qualifier"/>
                <ItemRef ItemOID="IT.PR.PRCAT" Mandatory="No" OrderNumber="10"
                    Role="Grouping Qualifier"/>
                <ItemRef ItemOID="IT.PR.PRSCAT" Mandatory="No" OrderNumber="11"
                    Role="Grouping Qualifier"/>
                <ItemRef ItemOID="IT.PR.PRSTDTC" Mandatory="No" OrderNumber="12" Role="Timing"/>
                <ItemRef ItemOID="IT.PR.PRRFTDTC" Mandatory="No" OrderNumber="13" Role="Timing"/>
                <ItemRef ItemOID="IT.PR.PRSTRTPT" Mandatory="No" OrderNumber="14" Role="Timing"/>
                <ItemRef ItemOID="IT.PR.PRSTTPT" Mandatory="No" OrderNumber="15" Role="Timing"/>
                <ItemRef ItemOID="IT.PR.PRENRTPT" Mandatory="No" OrderNumber="16" Role="Timing"/>
                <ItemRef ItemOID="IT.PR.PRENTPT" Mandatory="No" OrderNumber="17" Role="Timing"/>
                <ItemRef ItemOID="IT.PR.PRTRTC" Mandatory="No" OrderNumber="18"
                    Role="Non-standard Record Qualifier" def:IsNonStandard="Yes"/>
                <ItemRef ItemOID="IT.PR.PLNEXDUR" Mandatory="No" OrderNumber="19"
                    Role="Non-standard Record Qualifier" def:IsNonStandard="Yes"/>
                <ItemRef ItemOID="IT.PR.EXCINTSY" Mandatory="No" OrderNumber="20"
                    Role="Non-standard Record Qualifier" def:IsNonStandard="Yes"/>
                <ItemRef ItemOID="IT.PR.HRSLSTML" Mandatory="No" OrderNumber="21"
                    Role="Non-standard Record Qualifier" def:IsNonStandard="Yes"/>
                <ItemRef ItemOID="IT.PR.EXCOMP" Mandatory="No" OrderNumber="22"
                    Role="Non-standard Record Qualifier" def:IsNonStandard="Yes"/>
                <ItemRef ItemOID="IT.PR.SNKBEFEX" Mandatory="No" OrderNumber="23"
                    Role="Non-standard Record Qualifier" def:IsNonStandard="Yes"/>
                <ItemRef ItemOID="IT.PR.INUSDTDY" Mandatory="No" OrderNumber="24"
                    Role="Non-standard Record Qualifier" def:IsNonStandard="Yes"/>
                <ItemRef ItemOID="IT.PR.BETAGTDY" Mandatory="No" OrderNumber="25"
                    Role="Non-standard Record Qualifier" def:IsNonStandard="Yes"/>
                <ItemRef ItemOID="IT.PR.RESQCARB" Mandatory="No" OrderNumber="26"
                    Role="Non-standard Record Qualifier" def:IsNonStandard="Yes"/>
                <def:Class Name="INTERVENTIONS"/>
                <def:leaf ID="LF.PR" xlink:href="pr.xpt">
                    <def:title>pr.xpt</def:title>
                </def:leaf>
            </ItemGroupDef>
            <ItemGroupDef OID="IG.QS" Name="QS" Repeating="Yes" Domain="QS" SASDatasetName="QS"
                IsReferenceData="No" Purpose="Tabulation"
                def:Structure="One record per questionnaire per question per time point per visit per subject"
                def:ArchiveLocationID="LF.QS" def:StandardOID="STD.1">
                <Description>
                    <TranslatedText xml:lang="en">Questionnaire</TranslatedText>
                </Description>
                <ItemRef ItemOID="IT.QS.STUDYID" Mandatory="Yes" OrderNumber="1" Role="Identifier"/>
                <ItemRef ItemOID="IT.QS.DOMAIN" Mandatory="Yes" OrderNumber="2" Role="Identifier"/>
                <ItemRef ItemOID="IT.QS.USUBJID" Mandatory="Yes" OrderNumber="3" Role="Identifier"/>
                <ItemRef ItemOID="IT.QS.QSSEQ" Mandatory="Yes" OrderNumber="4" Role="Identifier"/>
                <ItemRef ItemOID="IT.QS.QSGRPID" Mandatory="No" OrderNumber="5" Role="Identifier"/>
                <ItemRef ItemOID="IT.QS.QSTESTCD" Mandatory="Yes" OrderNumber="6" Role="Topic"/>
                <ItemRef ItemOID="IT.QS.QSTEST" Mandatory="Yes" OrderNumber="7"
                    Role="Synonym Qualifier"/>
                <ItemRef ItemOID="IT.QS.QSCAT" Mandatory="Yes" OrderNumber="8"
                    Role="Grouping Qualifier"/>
                <ItemRef ItemOID="IT.QS.QSORRES" Mandatory="No" OrderNumber="9"
                    Role="Result Qualifier"/>
                <ItemRef ItemOID="IT.QS.QSORRESU" Mandatory="No" OrderNumber="10"
                    Role="Variable Qualifier"/>
                <ItemRef ItemOID="IT.QS.QSSTRESC" Mandatory="No" OrderNumber="11"
                    Role="Result Qualifier"/>
                <ItemRef ItemOID="IT.QS.QSSTRESN" Mandatory="No" OrderNumber="12"
                    Role="Result Qualifier"/>
                <ItemRef ItemOID="IT.QS.QSSTRESU" Mandatory="No" OrderNumber="13"
                    Role="Variable Qualifier"/>
                <ItemRef ItemOID="IT.QS.QSSTAT" Mandatory="No" OrderNumber="14"
                    Role="Record Qualifier"/>
                <ItemRef ItemOID="IT.QS.QSREASND" Mandatory="No" OrderNumber="15"
                    Role="Record Qualifier"/>
                <ItemRef ItemOID="IT.QS.QSDTC" Mandatory="No" OrderNumber="16" Role="Timing"/>
                <def:Class Name="FINDINGS"/>
                <def:leaf ID="LF.QS" xlink:href="qs.xpt">
                    <def:title>qs.xpt</def:title>
                </def:leaf>
            </ItemGroupDef>
            <ItemGroupDef OID="IG.DI" Name="DI" Repeating="Yes" Domain="DI" SASDatasetName="DI"
                IsReferenceData="No" Purpose="Tabulation"
                def:Structure="One record per device identifier per device"
                def:ArchiveLocationID="LF.DI" def:StandardOID="STD.2">
                <Description>
                    <TranslatedText xml:lang="en">Device Identifiers</TranslatedText>
                </Description>
                <ItemRef ItemOID="IT.DI.STUDYID" Mandatory="Yes" OrderNumber="1" Role="Identifier"/>
                <ItemRef ItemOID="IT.DI.DOMAIN" Mandatory="Yes" OrderNumber="2" Role="Identifier"/>
                <ItemRef ItemOID="IT.DI.SPDEVID" Mandatory="Yes" OrderNumber="3" Role="Identifier"/>
                <ItemRef ItemOID="IT.DI.DISEQ" Mandatory="No" OrderNumber="4" Role="Identifier"/>
                <ItemRef ItemOID="IT.DI.DIPARMCD" Mandatory="Yes" OrderNumber="5" Role="Topic"/>
                <ItemRef ItemOID="IT.DI.DIPARM" Mandatory="Yes" OrderNumber="6"
                    Role="Synonym Qualifier"/>
                <ItemRef ItemOID="IT.DI.DIVAL" Mandatory="Yes" OrderNumber="7"
                    Role="Result Qualifier"/>
                <def:Class Name="STUDY REFERENCE"/>
                <def:leaf ID="LF.DI" xlink:href="di.xpt">
                    <def:title>di.xpt</def:title>
                </def:leaf>
            </ItemGroupDef>
            <ItemGroupDef OID="IG.DU" Name="DU" Repeating="Yes" Domain="DU" SASDatasetName="DU"
                IsReferenceData="No" Purpose="Tabulation"
                def:Structure="One record per property or setting per time point per visit or test date per subject"
                def:ArchiveLocationID="LF.DU" def:StandardOID="STD.1">
                <Description>
                    <TranslatedText xml:lang="en">Device-In-Use</TranslatedText>
                </Description>
                <def:Class Name="FINDINGS"/>
                <def:leaf ID="LF.DU" xlink:href="du.xpt">
                    <def:title>du.xpt</def:title>
                </def:leaf>
            </ItemGroupDef>
            <ItemGroupDef OID="IG.RELREC" Name="RELREC" Repeating="Yes" Domain="RELREC"
                SASDatasetName="RELREC" IsReferenceData="No" Purpose="Tabulation"
                def:Structure="One record per related record, group of records or dataset"
                def:ArchiveLocationID="LF.RELREC" def:StandardOID="STD.1">
                <Description>
                    <TranslatedText xml:lang="en">Related Records</TranslatedText>
                </Description>
                <ItemRef ItemOID="IT.RELREC.STUDYID" Mandatory="Yes" OrderNumber="1"
                    Role="Identifier"/>
                <ItemRef ItemOID="IT.RELREC.RDOMAIN" Mandatory="Yes" OrderNumber="2"
                    Role="Identifier"/>
                <ItemRef ItemOID="IT.RELREC.USUBJID" Mandatory="No" OrderNumber="3"
                    Role="Identifier"/>
                <ItemRef ItemOID="IT.RELREC.IDVAR" Mandatory="Yes" OrderNumber="4" Role="Identifier"/>
                <ItemRef ItemOID="IT.RELREC.IDVARVAL" Mandatory="No" OrderNumber="5"
                    Role="Identifier"/>
                <ItemRef ItemOID="IT.RELREC.RELTYPE" Mandatory="No" OrderNumber="6"
                    Role="Record Qualifier"/>
                <ItemRef ItemOID="IT.RELREC.RELID" Mandatory="Yes" OrderNumber="7"
                    Role="Record Qualifier"/>
                <def:Class Name="RELATIONSHIP"/>
                <def:leaf ID="LF.RELREC" xlink:href="relrec.xpt">
                    <def:title>relrec.xpt</def:title>
                </def:leaf>
            </ItemGroupDef>
            <ItemGroupDef OID="IG.RP" Name="RP" Repeating="Yes" Domain="RP" SASDatasetName="RP"
                IsReferenceData="No" Purpose="Tabulation"
                def:Structure="One record per finding or result per time point per visit per subject"
                def:ArchiveLocationID="LF.RP" def:StandardOID="STD.1">
                <Description>
                    <TranslatedText xml:lang="en">Reproductive System Findings</TranslatedText>
                </Description>
                <ItemRef ItemOID="IT.RP.STUDYID" Mandatory="Yes" OrderNumber="1" Role="Identifier"/>
                <ItemRef ItemOID="IT.RP.DOMAIN" Mandatory="Yes" OrderNumber="2" Role="Identifier"/>
                <ItemRef ItemOID="IT.RP.USUBJID" Mandatory="Yes" OrderNumber="3" Role="Identifier"/>
                <ItemRef ItemOID="IT.RP.RPTESTCD" Mandatory="Yes" OrderNumber="4" Role="Topic"/>
                <ItemRef ItemOID="IT.RP.RPTEST" Mandatory="Yes" OrderNumber="5"
                    Role="Synonym Qualifier"/>
                <ItemRef ItemOID="IT.RP.RPORRES" Mandatory="No" OrderNumber="6"
                    Role="Result Qualifier"/>
                <ItemRef ItemOID="IT.RP.RPSTRESC" Mandatory="No" OrderNumber="7"
                    Role="Result Qualifier"/>
                <ItemRef ItemOID="IT.RP.RPDTC" Mandatory="No" OrderNumber="8" Role="Timing"/>
                <def:Class Name="FINDINGS"/>
                <def:leaf ID="LF.RP" xlink:href="rp.xpt">
                    <def:title>rp.xpt</def:title>
                </def:leaf>
            </ItemGroupDef>
            <ItemGroupDef OID="IG.SC" Name="SC" Repeating="No" Domain="SC" SASDatasetName="SC"
                IsReferenceData="No" Purpose="Tabulation"
                def:Structure="One record per characteristic per subject"
                def:ArchiveLocationID="LF.SC" def:StandardOID="STD.1">
                <Description>
                    <TranslatedText xml:lang="en">Subject Characteristics</TranslatedText>
                </Description>
                <ItemRef ItemOID="IT.SC.STUDYID" Mandatory="Yes" OrderNumber="1" Role="Identifier"/>
                <ItemRef ItemOID="IT.SC.DOMAIN" Mandatory="Yes" OrderNumber="2" Role="Identifier"/>
                <ItemRef ItemOID="IT.SC.USUBJID" Mandatory="Yes" OrderNumber="3" Role="Identifier"/>
                <ItemRef ItemOID="IT.SC.SCSEQ" Mandatory="Yes" OrderNumber="4" Role="Identifier"/>
                <ItemRef ItemOID="IT.SC.SCTESTCD" Mandatory="Yes" OrderNumber="5" Role="Topic"/>
                <ItemRef ItemOID="IT.SC.SCTEST" Mandatory="Yes" OrderNumber="6"
                    Role="Synonym Qualifier"/>
                <ItemRef ItemOID="IT.SC.SCORRES" Mandatory="No" OrderNumber="7"
                    Role="Result Qualifier"/>
                <ItemRef ItemOID="IT.SC.SCDTC" Mandatory="No" OrderNumber="8" Role="Timing"/>
                <def:Class Name="FINDINGS"/>
                <def:leaf ID="LF.SC" xlink:href="sc.xpt">
                    <def:title>sc.xpt</def:title>
                </def:leaf>
            </ItemGroupDef>
            <ItemGroupDef OID="IG.SUPPDM" Name="SUPPDM" Repeating="Yes" Domain="SUPPDM"
                SASDatasetName="SUPPDM" IsReferenceData="No" Purpose="Tabulation"
                def:Structure="One record per IDVAR, IDVARVAL, and QNAM value per subject"
                def:ArchiveLocationID="LF.SUPPDM" def:StandardOID="STD.1">
                <Description>
                    <TranslatedText xml:lang="en">Supplemental Qualifiers for DM</TranslatedText>
                </Description>
                <ItemRef ItemOID="IT.SUPPDM.STUDYID" Mandatory="Yes" OrderNumber="1"
                    Role="Identifier"/>
                <ItemRef ItemOID="IT.SUPPDM.RDOMAIN" Mandatory="Yes" OrderNumber="2"
                    Role="Identifier"/>
                <ItemRef ItemOID="IT.SUPPDM.USUBJID" Mandatory="Yes" OrderNumber="3"
                    Role="Identifier"/>
                <ItemRef ItemOID="IT.SUPPDM.IDVAR" Mandatory="No" OrderNumber="4" Role="Identifier"/>
                <ItemRef ItemOID="IT.SUPPDM.IDVARVAL" Mandatory="No" OrderNumber="5"
                    Role="Identifier"/>
                <ItemRef ItemOID="IT.SUPPDM.QNAM" Mandatory="Yes" OrderNumber="6" Role="Topic"/>
                <ItemRef ItemOID="IT.SUPPDM.QLABEL" Mandatory="Yes" OrderNumber="7"
                    Role="Synonym Qualifier"/>
                <ItemRef ItemOID="IT.SUPPDM.QVAL" Mandatory="Yes" OrderNumber="8"
                    Role="Result Qualifier"/>
                <ItemRef ItemOID="IT.SUPPDM.QORIG" Mandatory="Yes" OrderNumber="9"
                    Role="Record Qualifier"/>
                <ItemRef ItemOID="IT.SUPPDM.QEVAL" Mandatory="No" OrderNumber="10"
                    Role="Record Qualifier"/>
                <def:Class Name="RELATIONSHIP"/>
                <def:leaf ID="LF.SUPPDM" xlink:href="suppdm.xpt">
                    <def:title>suppdm.xpt</def:title>
                </def:leaf>
            </ItemGroupDef>
            <ItemGroupDef OID="IG.TA" Name="TA" Repeating="No" Domain="TA" SASDatasetName="TA"
                IsReferenceData="Yes" Purpose="Tabulation"
                def:Structure="One record per planned Element per Arm" def:ArchiveLocationID="LF.TA"
                def:StandardOID="STD.1">
                <Description>
                    <TranslatedText xml:lang="en">Trial Arms</TranslatedText>
                </Description>
                <def:Class Name="TRIAL DESIGN"/>
                <def:leaf ID="LF.TA" xlink:href="ta.xpt">
                    <def:title>ta.xpt</def:title>
                </def:leaf>
            </ItemGroupDef>
            <ItemGroupDef OID="IG.TE" Name="TE" Repeating="No" Domain="TE" SASDatasetName="TE"
                IsReferenceData="Yes" Purpose="Tabulation"
                def:Structure="One record per planned Element" def:ArchiveLocationID="LF.TE"
                def:StandardOID="STD.1">
                <Description>
                    <TranslatedText xml:lang="en">Trial Elements</TranslatedText>
                </Description>
                <def:Class Name="TRIAL DESIGN"/>
                <def:leaf ID="LF.TE" xlink:href="te.xpt">
                    <def:title>te.xpt</def:title>
                </def:leaf>
            </ItemGroupDef>
            <ItemGroupDef OID="IG.TI" Name="TI" Repeating="No" Domain="TI" SASDatasetName="TI"
                IsReferenceData="Yes" Purpose="Tabulation"
                def:Structure="One record per I/E criterion" def:ArchiveLocationID="LF.TI"
                def:StandardOID="STD.1">
                <Description>
                    <TranslatedText xml:lang="en">Trial Inclusion/Exclusion
                        Criteria</TranslatedText>
                </Description>
                <def:Class Name="TRIAL DESIGN"/>
                <def:leaf ID="LF.TI" xlink:href="ti.xpt">
                    <def:title>ti.xpt</def:title>
                </def:leaf>
            </ItemGroupDef>
            <ItemGroupDef OID="IG.TS" Name="TS" Repeating="No" Domain="TS" SASDatasetName="TS"
                IsReferenceData="Yes" Purpose="Tabulation"
                def:Structure="One record per trial summary parameter value"
                def:ArchiveLocationID="LF.TS" def:StandardOID="STD.1">
                <Description>
                    <TranslatedText xml:lang="en">Trial Summary</TranslatedText>
                </Description>
                <def:Class Name="TRIAL DESIGN"/>
                <def:leaf ID="LF.TS" xlink:href="ts.xpt">
                    <def:title>ts.xpt</def:title>
                </def:leaf>
            </ItemGroupDef>
            <ItemGroupDef OID="IG.TV" Name="TV" Repeating="No" Domain="TV" SASDatasetName="TV"
                IsReferenceData="Yes" Purpose="Tabulation"
                def:Structure="One record per planned Visit per Arm" def:ArchiveLocationID="LF.TV"
                def:StandardOID="STD.1">
                <Description>
                    <TranslatedText xml:lang="en">Trial Visits</TranslatedText>
                </Description>
                <def:Class Name="TRIAL DESIGN"/>
                <def:leaf ID="LF.TV" xlink:href="tv.xpt">
                    <def:title>tv.xpt</def:title>
                </def:leaf>
            </ItemGroupDef>
            <ItemGroupDef OID="IG.VS" Name="VS" Repeating="Yes" Domain="VS" SASDatasetName="VS"
                IsReferenceData="No" Purpose="Tabulation"
                def:Structure="One record per vital sign measurement per visit per subject"
                def:ArchiveLocationID="LF.VS" def:StandardOID="STD.1">
                <Description>
                    <TranslatedText xml:lang="en">Vital Signs</TranslatedText>
                </Description>
                <ItemRef ItemOID="IT.VS.STUDYID" Mandatory="Yes" OrderNumber="1" Role="Identifier"/>
                <ItemRef ItemOID="IT.VS.DOMAIN" Mandatory="Yes" OrderNumber="2" Role="Identifier"/>
                <ItemRef ItemOID="IT.VS.USUBJID" Mandatory="Yes" OrderNumber="3" Role="Identifier"/>
                <ItemRef ItemOID="IT.VS.VSSEQ" Mandatory="Yes" OrderNumber="4" Role="Identifier"/>
                <ItemRef ItemOID="IT.VS.VSGRPID" Mandatory="No" OrderNumber="5" Role="Identifier"/>
                <ItemRef ItemOID="IT.VS.VSTESTCD" Mandatory="Yes" OrderNumber="6" Role="Topic"/>
                <ItemRef ItemOID="IT.VS.VSTEST" Mandatory="Yes" OrderNumber="7"
                    Role="Synonym Qualifier"/>
                <ItemRef ItemOID="IT.VS.VSCAT" Mandatory="No" OrderNumber="8"
                    Role="Grouping Qualifier"/>
                <ItemRef ItemOID="IT.VS.VSSCAT" Mandatory="No" OrderNumber="9"
                    Role="Grouping Qualifier"/>
                <ItemRef ItemOID="IT.VS.VSPOS" Mandatory="No" OrderNumber="10"
                    Role="Record Qualifier"/>
                <ItemRef ItemOID="IT.VS.VSORRES" Mandatory="No" OrderNumber="11"
                    Role="Result Qualifier"/>
                <ItemRef ItemOID="IT.VS.VSORRESU" Mandatory="No" OrderNumber="12"
                    Role="Variable Qualifier"/>
                <ItemRef ItemOID="IT.VS.VSSTRESC" Mandatory="No" OrderNumber="13"
                    Role="Result Qualifier"/>
                <ItemRef ItemOID="IT.VS.VSSTRESN" Mandatory="No" OrderNumber="14"
                    Role="Result Qualifier"/>
                <ItemRef ItemOID="IT.VS.VSSTRESU" Mandatory="No" OrderNumber="15"
                    Role="Variable Qualifier"/>
                <ItemRef ItemOID="IT.VS.VSLOBXFL" Mandatory="No" OrderNumber="16"
                    Role="Record Qualifier"/>
                <ItemRef ItemOID="IT.VS.VSBLFL" Mandatory="No" OrderNumber="17"
                    Role="Record Qualifier"/>
                <ItemRef ItemOID="IT.VS.VSDRVFL" Mandatory="No" OrderNumber="18"
                    Role="Record Qualifier"/>
                <ItemRef ItemOID="IT.VS.VISITNUM" Mandatory="No" OrderNumber="19" Role="Timing"/>
                <ItemRef ItemOID="IT.VS.VISIT" Mandatory="No" OrderNumber="20" Role="Timing"/>
                <ItemRef ItemOID="IT.VS.VISITDY" Mandatory="No" OrderNumber="21" Role="Timing"/>
                <ItemRef ItemOID="IT.VS.TAETORD" Mandatory="No" OrderNumber="22" Role="Timing"/>
                <ItemRef ItemOID="IT.VS.EPOCH" Mandatory="No" OrderNumber="23" Role="Timing"/>
                <ItemRef ItemOID="IT.VS.VSDTC" Mandatory="No" OrderNumber="24" Role="Timing"/>
                <def:Class Name="FINDINGS"/>
                <def:leaf ID="LF.VS" xlink:href="vs.xpt">
                    <def:title>vs.xpt</def:title>
                </def:leaf>
            </ItemGroupDef>
            <ItemDef OID="IT.CM.STUDYID" Name="STUDYID" DataType="text" SASFieldName="STUDYID"
                Length="6">
                <Description>
                    <TranslatedText xml:lang="en">Study Identifier</TranslatedText>
                </Description>
            </ItemDef>
            <ItemDef OID="IT.CM.DOMAIN" Name="DOMAIN" DataType="text" SASFieldName="DOMAIN"
                Length="2">
                <Description>
                    <TranslatedText xml:lang="en">Domain Abbreviation</TranslatedText>
                </Description>
                <CodeListRef CodeListOID="CL.DOMAIN.CM"/>
            </ItemDef>
            <ItemDef OID="IT.CM.USUBJID" Name="USUBJID" DataType="text" SASFieldName="USUBJID"
                Length="20">
                <Description>
                    <TranslatedText xml:lang="en">Unique Subject Identifier</TranslatedText>
                </Description>
            </ItemDef>
            <ItemDef OID="IT.CM.CMSEQ" Name="CMSEQ" DataType="integer" SASFieldName="CMSEQ"
                Length="3">
                <Description>
                    <TranslatedText xml:lang="en">Sequence Number</TranslatedText>
                </Description>
            </ItemDef>
            <ItemDef OID="IT.CM.CMGRPID" Name="CMGRPID" DataType="text" SASFieldName="CMGRPID"
                Length="200">
                <Description>
                    <TranslatedText xml:lang="en">Group ID</TranslatedText>
                </Description>
            </ItemDef>
            <ItemDef OID="IT.CM.CMTRT" Name="CMTRT" DataType="text" SASFieldName="CMTRT"
                Length="200">
                <Description>
                    <TranslatedText xml:lang="en">Reported Name of Drug, Med, or
                        Therapy</TranslatedText>
                </Description>
            </ItemDef>
            <ItemDef OID="IT.CM.CMCAT" Name="CMCAT" DataType="text" SASFieldName="CMCAT" Length="19">
                <Description>
                    <TranslatedText xml:lang="en">Category for Medication</TranslatedText>
                </Description>
            </ItemDef>
            <ItemDef OID="IT.CM.CMSCAT" Name="CMSCAT" DataType="text" SASFieldName="CMSCAT"
                Length="25">
                <Description>
                    <TranslatedText xml:lang="en">Subcategory for Medication</TranslatedText>
                </Description>
            </ItemDef>
            <ItemDef OID="IT.CM.CMPRESP" Name="CMPRESP" DataType="text" SASFieldName="CMPRESP"
                Length="1">
                <Description>
                    <TranslatedText xml:lang="en">CM Pre-specified</TranslatedText>
                </Description>
                <CodeListRef CodeListOID="CL.C66742"/>
            </ItemDef>
            <ItemDef OID="IT.CM.CMSTRTPT" Name="CMSTRTPT" DataType="text" SASFieldName="CMSTRTPT"
                Length="6">
                <Description>
                    <TranslatedText xml:lang="en">Start Relative to Reference Time
                        Point</TranslatedText>
                </Description>
                <CodeListRef CodeListOID="CL.C66728"/>
            </ItemDef>
            <ItemDef OID="IT.CM.CMSTTPT" Name="CMSTTPT" DataType="datetime" SASFieldName="CMSTTPT">
                <Description>
                    <TranslatedText xml:lang="en">Start Reference Time Point</TranslatedText>
                </Description>
            </ItemDef>
            <ItemDef OID="IT.CM.CMENRTPT" Name="CMENRTPT" DataType="text" SASFieldName="CMENRTPT"
                Length="7">
                <Description>
                    <TranslatedText xml:lang="en">End Relative to Reference Time
                        Point</TranslatedText>
                </Description>
                <CodeListRef CodeListOID="CL.C66728"/>
            </ItemDef>
            <ItemDef OID="IT.CM.CMENTPT" Name="CMENTPT" DataType="datetime" SASFieldName="CMENTPT">
                <Description>
                    <TranslatedText xml:lang="en">End Reference Time Point</TranslatedText>
                </Description>
            </ItemDef>
            <ItemDef OID="IT.CM.DRDELMTD" Name="DRDELMTD" DataType="text" SASFieldName="DRDELMTD"
                Length="11">
                <Description>
                    <TranslatedText xml:lang="en">Delivery Method</TranslatedText>
                </Description>
            </ItemDef>
            <ItemDef OID="IT.DI.STUDYID" Name="STUDYID" DataType="text" SASFieldName="STUDYID"
                Length="6">
                <Description>
                    <TranslatedText xml:lang="en">Study Identifier</TranslatedText>
                </Description>
            </ItemDef>
            <ItemDef OID="IT.DI.DOMAIN" Name="DOMAIN" DataType="text" SASFieldName="DOMAIN"
                Length="2">
                <Description>
                    <TranslatedText xml:lang="en">Domain Abbreviation</TranslatedText>
                </Description>
                <CodeListRef CodeListOID="CL.DOMAIN.DI"/>
            </ItemDef>
            <ItemDef OID="IT.DI.SPDEVID" Name="SPDEVID" DataType="text" SASFieldName="SPDEVID"
                Length="6">
                <Description>
                    <TranslatedText xml:lang="en">Sponsor Device Identifier</TranslatedText>
                </Description>
            </ItemDef>
            <ItemDef OID="IT.DI.DISEQ" Name="DISEQ" DataType="integer" SASFieldName="DISEQ"
                Length="1">
                <Description>
                    <TranslatedText xml:lang="en">Sequence Number</TranslatedText>
                </Description>
            </ItemDef>
            <ItemDef OID="IT.DI.DIPARMCD" Name="DIPARMCD" DataType="text" SASFieldName="DIPARMCD"
                Length="8">
                <Description>
                    <TranslatedText xml:lang="en">Device Identifier Element Short
                        Name</TranslatedText>
                </Description>
            </ItemDef>
            <ItemDef OID="IT.DI.DIPARM" Name="DIPARM" DataType="text" SASFieldName="DIPARM"
                Length="26">
                <Description>
                    <TranslatedText xml:lang="en">Device Identifier Element Name</TranslatedText>
                </Description>
            </ItemDef>
            <ItemDef OID="IT.DI.DIVAL" Name="DIVAL" DataType="text" SASFieldName="DIVAL" Length="45">
                <Description>
                    <TranslatedText xml:lang="en">Device Identifier Element Value</TranslatedText>
                </Description>
            </ItemDef>
            <ItemDef OID="IT.DM.STUDYID" Name="STUDYID" DataType="text" SASFieldName="STUDYID"
                Length="6">
                <Description>
                    <TranslatedText xml:lang="en">Study Identifier</TranslatedText>
                </Description>
            </ItemDef>
            <ItemDef OID="IT.DM.DOMAIN" Name="DOMAIN" DataType="text" SASFieldName="DOMAIN"
                Length="2">
                <Description>
                    <TranslatedText xml:lang="en">Domain Abbreviation</TranslatedText>
                </Description>
                <CodeListRef CodeListOID="CL.DOMAIN.DM"/>
            </ItemDef>
            <ItemDef OID="IT.DM.USUBJID" Name="USUBJID" DataType="text" SASFieldName="USUBJID"
                Length="20">
                <Description>
                    <TranslatedText xml:lang="en">Unique Subject Identifier</TranslatedText>
                </Description>
            </ItemDef>
            <ItemDef OID="IT.DM.SUBJID" Name="SUBJID" DataType="text" SASFieldName="SUBJID"
                Length="200">
                <Description>
                    <TranslatedText xml:lang="en">Subject Identifier for the Study</TranslatedText>
                </Description>
            </ItemDef>
            <ItemDef OID="IT.DM.RFSTDTC" Name="RFSTDTC" DataType="datetime" SASFieldName="RFSTDTC"
                def:CommentOID="COM.ISO8601">
                <Description>
                    <TranslatedText xml:lang="en">Subject Reference Start Date/Time</TranslatedText>
                </Description>
            </ItemDef>
            <ItemDef OID="IT.DM.RFENDTC" Name="RFENDTC" DataType="datetime" SASFieldName="RFENDTC"
                def:CommentOID="COM.ISO8601">
                <Description>
                    <TranslatedText xml:lang="en">Subject Reference End Date/Time</TranslatedText>
                </Description>
            </ItemDef>
            <ItemDef OID="IT.DM.RFXSTDTC" Name="RFXSTDTC" DataType="datetime"
                SASFieldName="RFXSTDTC" def:CommentOID="COM.ISO8601">
                <Description>
                    <TranslatedText xml:lang="en">Date/Time of First Study
                        Treatment</TranslatedText>
                </Description>
            </ItemDef>
            <ItemDef OID="IT.DM.RFXENDTC" Name="RFXENDTC" DataType="datetime"
                SASFieldName="RFXENDTC" def:CommentOID="COM.ISO8601">
                <Description>
                    <TranslatedText xml:lang="en">Date/Time of Last Study Treatment</TranslatedText>
                </Description>
            </ItemDef>
            <ItemDef OID="IT.DM.RFICDTC" Name="RFICDTC" DataType="datetime" SASFieldName="RFICDTC">
                <Description>
                    <TranslatedText xml:lang="en">Date/Time of Informed Consent</TranslatedText>
                </Description>
            </ItemDef>
            <ItemDef OID="IT.DM.RFPENDTC" Name="RFPENDTC" DataType="datetime"
                SASFieldName="RFPENDTC" def:CommentOID="COM.ISO8601">
                <Description>
                    <TranslatedText xml:lang="en">Date/Time of End of Participation</TranslatedText>
                </Description>
            </ItemDef>
            <ItemDef OID="IT.DM.DTHDTC" Name="DTHDTC" DataType="datetime" SASFieldName="DTHDTC"
                def:CommentOID="COM.ISO8601">
                <Description>
                    <TranslatedText xml:lang="en">Date/Time of Death</TranslatedText>
                </Description>
            </ItemDef>
            <ItemDef OID="IT.DM.DTHFL" Name="DTHFL" DataType="integer" SASFieldName="DTHFL"
                Length="1">
                <Description>
                    <TranslatedText xml:lang="en">Subject Death Flag</TranslatedText>
                </Description>
                <CodeListRef CodeListOID="CL.C66742"/>
            </ItemDef>
            <ItemDef OID="IT.DM.SITEID" Name="SITEID" DataType="text" SASFieldName="SITEID"
                Length="1">
                <Description>
                    <TranslatedText xml:lang="en">Study Site Identifier</TranslatedText>
                </Description>
            </ItemDef>
            <ItemDef OID="IT.DM.BRTHDTC" Name="BRTHDTC" DataType="datetime" SASFieldName="BRTHDTC"
                def:CommentOID="COM.ISO8601">
                <Description>
                    <TranslatedText xml:lang="en">Date/Time of Birth</TranslatedText>
                </Description>
            </ItemDef>
            <ItemDef OID="IT.DM.AGE" Name="AGE" DataType="text" SASFieldName="AGE" Length="200">
                <Description>
                    <TranslatedText xml:lang="en">Age</TranslatedText>
                </Description>
            </ItemDef>
            <ItemDef OID="IT.DM.AGEU" Name="AGEU" DataType="text" SASFieldName="AGEU" Length="5">
                <Description>
                    <TranslatedText xml:lang="en">Age Units</TranslatedText>
                </Description>
                <CodeListRef CodeListOID="CL.C66781"/>
            </ItemDef>
            <ItemDef OID="IT.DM.SEX" Name="SEX" DataType="text" SASFieldName="SEX" Length="6">
                <Description>
                    <TranslatedText xml:lang="en">Sex</TranslatedText>
                </Description>
                <CodeListRef CodeListOID="CL.C66731"/>
            </ItemDef>
            <ItemDef OID="IT.DM.RACE" Name="RACE" DataType="text" SASFieldName="RACE" Length="38">
                <Description>
                    <TranslatedText xml:lang="en">Race</TranslatedText>
                </Description>
                <CodeListRef CodeListOID="CL.C74457"/>
            </ItemDef>
            <ItemDef OID="IT.DM.ETHNIC" Name="ETHNIC" DataType="text" SASFieldName="ETHNIC"
                Length="22">
                <Description>
                    <TranslatedText xml:lang="en">Ethnicity</TranslatedText>
                </Description>
                <CodeListRef CodeListOID="CL.C66790"/>
            </ItemDef>
            <ItemDef OID="IT.DM.ARMCD" Name="ARMCD" DataType="text" SASFieldName="ARMCD"
                Length="200">
                <Description>
                    <TranslatedText xml:lang="en">Planned Arm Code</TranslatedText>
                </Description>
            </ItemDef>
            <ItemDef OID="IT.DM.ARM" Name="ARM" DataType="text" SASFieldName="ARM" Length="200">
                <Description>
                    <TranslatedText xml:lang="en">Description of Planned Arm</TranslatedText>
                </Description>
            </ItemDef>
            <ItemDef OID="IT.DM.ACTARMCD" Name="ACTARMCD" DataType="text" SASFieldName="ACTARMCD"
                Length="200">
                <Description>
                    <TranslatedText xml:lang="en">Actual Arm Code</TranslatedText>
                </Description>
            </ItemDef>
            <ItemDef OID="IT.DM.ACTARM" Name="ACTARM" DataType="text" SASFieldName="ACTARM"
                Length="200">
                <Description>
                    <TranslatedText xml:lang="en">Description of Actual Arm</TranslatedText>
                </Description>
            </ItemDef>
            <ItemDef OID="IT.DM.ARMNRS" Name="ARMNRS" DataType="text" SASFieldName="ARMNRS"
                Length="200">
                <Description>
                    <TranslatedText xml:lang="en">Reason Arm and/or Actual Arm is
                        Null</TranslatedText>
                </Description>
            </ItemDef>
            <ItemDef OID="IT.DM.ACTARMUD" Name="ACTARMUD" DataType="text" SASFieldName="ACTARMUD"
                Length="200">
                <Description>
                    <TranslatedText xml:lang="en">Description of Unplanned Actual
                        Arm</TranslatedText>
                </Description>
            </ItemDef>
            <ItemDef OID="IT.DM.COUNTRY" Name="COUNTRY" DataType="text" SASFieldName="COUNTRY"
                Length="2" def:CommentOID="COM.ISO3166-1">
                <Description>
                    <TranslatedText xml:lang="en">Country</TranslatedText>
                </Description>
            </ItemDef>
            <ItemDef OID="IT.DM.DMDTC" Name="DMDTC" DataType="datetime" SASFieldName="DMDTC"
                def:CommentOID="COM.ISO8601">
                <Description>
                    <TranslatedText xml:lang="en">Date/Time of Collection</TranslatedText>
                </Description>
            </ItemDef>
            <ItemDef OID="IT.DM.DMDY" Name="DMDY" DataType="integer" SASFieldName="DMDY" Length="4">
                <Description>
                    <TranslatedText xml:lang="en">Study Day of Collection</TranslatedText>
                </Description>
            </ItemDef>
            <ItemDef OID="IT.DX.STUDYID" Name="STUDYID" DataType="text" SASFieldName="STUDYID"
                Length="6">
                <Description>
                    <TranslatedText xml:lang="en">Study Identifier</TranslatedText>
                </Description>
            </ItemDef>
            <ItemDef OID="IT.DX.DOMAIN" Name="DOMAIN" DataType="text" SASFieldName="DOMAIN"
                Length="2">
                <Description>
                    <TranslatedText xml:lang="en">Domain Abbreviation</TranslatedText>
                </Description>
                <CodeListRef CodeListOID="CL.DOMAIN.DX"/>
            </ItemDef>
            <ItemDef OID="IT.DX.USUBJID" Name="USUBJID" DataType="text" SASFieldName="USUBJID"
                Length="20">
                <Description>
                    <TranslatedText xml:lang="en">Unique Subject Identifier</TranslatedText>
                </Description>
            </ItemDef>
            <ItemDef OID="IT.DX.SPDEVID" Name="SPDEVID" DataType="text" SASFieldName="SPDEVID"
                Length="6">
                <Description>
                    <TranslatedText xml:lang="en">Sponsor Device Identifier</TranslatedText>
                </Description>
            </ItemDef>
            <ItemDef OID="IT.DX.DXSEQ" Name="DXSEQ" DataType="integer" SASFieldName="DXSEQ"
                Length="1">
                <Description>
                    <TranslatedText xml:lang="en">Sequence Number</TranslatedText>
                </Description>
            </ItemDef>
            <ItemDef OID="IT.DX.DXGRPID" Name="DXGRPID" DataType="text" SASFieldName="DXGRPID"
                Length="200">
                <Description>
                    <TranslatedText xml:lang="en">Group ID</TranslatedText>
                </Description>
            </ItemDef>
            <ItemDef OID="IT.DX.DXTRT" Name="DXTRT" DataType="text" SASFieldName="DXTRT" Length="41">
                <Description>
                    <TranslatedText xml:lang="en">Name of Device Exposure or Output</TranslatedText>
                </Description>
            </ItemDef>
            <ItemDef OID="IT.DX.DXCAT" Name="DXCAT" DataType="text" SASFieldName="DXCAT" Length="20">
                <Description>
                    <TranslatedText xml:lang="en">Category for Device Exposure</TranslatedText>
                </Description>
            </ItemDef>
            <ItemDef OID="IT.DX.DXSCAT" Name="DXSCAT" DataType="text" SASFieldName="DXSCAT"
                Length="7">
                <Description>
                    <TranslatedText xml:lang="en">Subcategory for Device Exposure</TranslatedText>
                </Description>
            </ItemDef>
            <ItemDef OID="IT.DX.VISITNUM" Name="VISITNUM" DataType="integer" SASFieldName="VISITNUM"
                Length="1">
                <Description>
                    <TranslatedText xml:lang="en">Visit Number</TranslatedText>
                </Description>
            </ItemDef>
            <ItemDef OID="IT.DX.VISIT" Name="VISIT" DataType="text" SASFieldName="VISIT" Length="9">
                <Description>
                    <TranslatedText xml:lang="en">Visit Name</TranslatedText>
                </Description>
            </ItemDef>
            <ItemDef OID="IT.DX.DXDTC" Name="DXDTC" DataType="datetime" SASFieldName="DXDTC"
                def:CommentOID="COM.ISO8601">
                <Description>
                    <TranslatedText xml:lang="en">Visit Date</TranslatedText>
                </Description>
            </ItemDef>
            <ItemDef OID="IT.DX.DXSTRTPT" Name="DXSTRTPT" DataType="text" SASFieldName="DXSTRTPT"
                Length="6">
                <Description>
                    <TranslatedText xml:lang="en">Start Relative to Reference Time
                        Point</TranslatedText>
                </Description>
            </ItemDef>
            <ItemDef OID="IT.DX.DXENRTPT" Name="DXENRTPT" DataType="text" SASFieldName="DXENRTPT"
                Length="7">
                <Description>
                    <TranslatedText xml:lang="en">End Relative to Reference Time
                        Point</TranslatedText>
                </Description>
            </ItemDef>
            <ItemDef OID="IT.DX.DXEVINTX" Name="DXEVINTX" DataType="text" SASFieldName="DXEVINTX"
                Length="200">
                <Description>
                    <TranslatedText xml:lang="en">Evaluation Interval Text</TranslatedText>
                </Description>
            </ItemDef>
            <ItemDef OID="IT.FA.STUDYID" Name="STUDYID" DataType="text" SASFieldName="STUDYID"
                Length="6">
                <Description>
                    <TranslatedText xml:lang="en">Study Identifier</TranslatedText>
                </Description>
            </ItemDef>
            <ItemDef OID="IT.FA.DOMAIN" Name="DOMAIN" DataType="text" SASFieldName="DOMAIN"
                Length="2">
                <Description>
                    <TranslatedText xml:lang="en">Domain Abbreviation</TranslatedText>
                </Description>
                <CodeListRef CodeListOID="CL.DOMAIN.FA"/>
            </ItemDef>
            <ItemDef OID="IT.FA.USUBJID" Name="USUBJID" DataType="text" SASFieldName="USUBJID"
                Length="20">
                <Description>
                    <TranslatedText xml:lang="en">Unique Subject Identifier</TranslatedText>
                </Description>
            </ItemDef>
            <ItemDef OID="IT.FA.FASEQ" Name="FASEQ" DataType="integer" SASFieldName="FASEQ"
                Length="1">
                <Description>
                    <TranslatedText xml:lang="en">Sequence Number</TranslatedText>
                </Description>
            </ItemDef>
            <ItemDef OID="IT.FA.FAGRPID" Name="FAGRPID" DataType="text" SASFieldName="FAGRPID"
                Length="200">
                <Description>
                    <TranslatedText xml:lang="en">Group ID</TranslatedText>
                </Description>
            </ItemDef>
            <ItemDef OID="IT.FA.FASPID" Name="FASPID" DataType="text" SASFieldName="FASPID"
                Length="200">
                <Description>
                    <TranslatedText xml:lang="en">Sponsor-Defined Identifier</TranslatedText>
                </Description>
            </ItemDef>
            <ItemDef OID="IT.FA.FATESTCD" Name="FATESTCD" DataType="text" SASFieldName="FATESTCD"
                Length="8">
                <Description>
                    <TranslatedText xml:lang="en">Findings About Test Short Name</TranslatedText>
                </Description>
            </ItemDef>
            <ItemDef OID="IT.FA.FATEST" Name="FATEST" DataType="text" SASFieldName="FATEST"
                Length="13">
                <Description>
                    <TranslatedText xml:lang="en">Findings About Test Name</TranslatedText>
                </Description>
            </ItemDef>
            <ItemDef OID="IT.FA.FAOBJ" Name="FAOBJ" DataType="text" SASFieldName="FAOBJ"
                Length="200">
                <Description>
                    <TranslatedText xml:lang="en">Object of the Observation</TranslatedText>
                </Description>
            </ItemDef>
            <ItemDef OID="IT.FA.FACAT" Name="FACAT" DataType="text" SASFieldName="FACAT" Length="19">
                <Description>
                    <TranslatedText xml:lang="en">Category for Findings About</TranslatedText>
                </Description>
            </ItemDef>
            <ItemDef OID="IT.FA.FAORRES" Name="FAORRES" DataType="text" SASFieldName="FAORRES"
                Length="200">
                <Description>
                    <TranslatedText xml:lang="en">Result or Finding in Original
                        Units</TranslatedText>
                </Description>
            </ItemDef>
            <ItemDef OID="IT.FA.FAORRESU" Name="FAORRESU" DataType="text" SASFieldName="FAORRESU"
                Length="5">
                <Description>
                    <TranslatedText xml:lang="en">Original Units</TranslatedText>
                </Description>
                <CodeListRef CodeListOID="CL.C71620"/>
            </ItemDef>
            <ItemDef OID="IT.FA.FASTRESC" Name="FASTRESC" DataType="text" SASFieldName="FASTRESC"
                Length="200">
                <Description>
                    <TranslatedText xml:lang="en">Character Result/Finding in Std
                        Format</TranslatedText>
                </Description>
            </ItemDef>
            <ItemDef OID="IT.FA.FASTRESN" Name="FASTRESN" DataType="integer" SASFieldName="FASTRESN"
                Length="4">
                <Description>
                    <TranslatedText xml:lang="en">Numeric Result/Finding in Standard
                        Units</TranslatedText>
                </Description>
            </ItemDef>
            <ItemDef OID="IT.FA.FASTRESU" Name="FASTRESU" DataType="text" SASFieldName="FASTRESU"
                Length="5">
                <Description>
                    <TranslatedText xml:lang="en">Standard Units</TranslatedText>
                </Description>
                <CodeListRef CodeListOID="CL.C71620"/>
            </ItemDef>
            <ItemDef OID="IT.FA.FABLFL" Name="FABLFL" DataType="text" SASFieldName="FABLFL"
                Length="1">
                <Description>
                    <TranslatedText xml:lang="en">Baseline Flag</TranslatedText>
                </Description>
                <CodeListRef CodeListOID="CL.C66742"/>
            </ItemDef>
            <ItemDef OID="IT.FA.VISITNUM" Name="VISITNUM" DataType="integer" SASFieldName="VISITNUM"
                Length="1">
                <Description>
                    <TranslatedText xml:lang="en">Visit Number</TranslatedText>
                </Description>
            </ItemDef>
            <ItemDef OID="IT.FA.VISIT" Name="VISIT" DataType="text" SASFieldName="VISIT"
                Length="200">
                <Description>
                    <TranslatedText xml:lang="en">Visit Name</TranslatedText>
                </Description>
            </ItemDef>
            <ItemDef OID="IT.FA.FADTC" Name="FADTC" DataType="datetime" SASFieldName="FADTC"
                def:CommentOID="COM.ISO8601">
                <Description>
                    <TranslatedText xml:lang="en">Date/Time of Collection</TranslatedText>
                </Description>
            </ItemDef>
            <ItemDef OID="IT.FA.BEDTIME" Name="BEDTIME" DataType="text" SASFieldName="BEDTIME"
                Length="200">
                <Description>
                    <TranslatedText xml:lang="en">Bedtime last night</TranslatedText>
                </Description>
            </ItemDef>
            <ItemDef OID="IT.FA.RISETIME" Name="RISETIME" DataType="text" SASFieldName="RISETIME"
                Length="200">
                <Description>
                    <TranslatedText xml:lang="en">Risetime today</TranslatedText>
                </Description>
            </ItemDef>
            <ItemDef OID="IT.FADX.STUDYID" Name="STUDYID" DataType="text" SASFieldName="STUDYID"
                Length="6">
                <Description>
                    <TranslatedText xml:lang="en">Study Identifier</TranslatedText>
                </Description>
            </ItemDef>
            <ItemDef OID="IT.FADX.DOMAIN" Name="DOMAIN" DataType="text" SASFieldName="DOMAIN"
                Length="2">
                <Description>
                    <TranslatedText xml:lang="en">Domain Abbreviation</TranslatedText>
                </Description>
                <CodeListRef CodeListOID="CL.DOMAIN.FA"/>
            </ItemDef>
            <ItemDef OID="IT.FADX.USUBJID" Name="USUBJID" DataType="text" SASFieldName="USUBJID"
                Length="20">
                <Description>
                    <TranslatedText xml:lang="en">Unique Subject Identifier</TranslatedText>
                </Description>
            </ItemDef>
            <ItemDef OID="IT.FADX.FASEQ" Name="FASEQ" DataType="integer" SASFieldName="FASEQ"
                Length="1">
                <Description>
                    <TranslatedText xml:lang="en">Sequence Number</TranslatedText>
                </Description>
            </ItemDef>
            <ItemDef OID="IT.FADX.FAGRPID" Name="FAGRPID" DataType="text" SASFieldName="FAGRPID"
                Length="200">
                <Description>
                    <TranslatedText xml:lang="en">Group ID</TranslatedText>
                </Description>
            </ItemDef>
            <ItemDef OID="IT.FADX.FASPID" Name="FASPID" DataType="text" SASFieldName="FASPID"
                Length="200">
                <Description>
                    <TranslatedText xml:lang="en">Sponsor-Defined Identifier</TranslatedText>
                </Description>
            </ItemDef>
            <ItemDef OID="IT.FADX.FATESTCD" Name="FATESTCD" DataType="text" SASFieldName="FATESTCD"
                Length="6">
                <Description>
                    <TranslatedText xml:lang="en">Findings About Test Short Name</TranslatedText>
                </Description>
            </ItemDef>
            <ItemDef OID="IT.FADX.FATEST" Name="FATEST" DataType="text" SASFieldName="FATEST"
                Length="19">
                <Description>
                    <TranslatedText xml:lang="en">Findings About Test Name</TranslatedText>
                </Description>
            </ItemDef>
            <ItemDef OID="IT.FADX.FAOBJ" Name="FAOBJ" DataType="text" SASFieldName="FAOBJ"
                Length="18">
                <Description>
                    <TranslatedText xml:lang="en">Object of the Observation</TranslatedText>
                </Description>
            </ItemDef>
            <ItemDef OID="IT.FADX.FACAT" Name="FACAT" DataType="text" SASFieldName="FACAT"
                Length="2">
                <Description>
                    <TranslatedText xml:lang="en">Category for Findings About</TranslatedText>
                </Description>
            </ItemDef>
            <ItemDef OID="IT.FADX.FASCAT" Name="FASCAT" DataType="text" SASFieldName="FASCAT"
                Length="20">
                <Description>
                    <TranslatedText xml:lang="en">Subcategory for Findings About</TranslatedText>
                </Description>
            </ItemDef>
            <ItemDef OID="IT.FADX.FAORRES" Name="FAORRES" DataType="text" SASFieldName="FAORRES"
                Length="22">
                <Description>
                    <TranslatedText xml:lang="en">Result or Finding in Original
                        Units</TranslatedText>
                </Description>
            </ItemDef>
            <ItemDef OID="IT.FADX.FAORRESU" Name="FAORRESU" DataType="text" SASFieldName="FAORRESU"
                Length="200">
                <Description>
                    <TranslatedText xml:lang="en">Original Units</TranslatedText>
                </Description>
                <CodeListRef CodeListOID="CL.C71620"/>
            </ItemDef>
            <ItemDef OID="IT.FADX.FASTRESC" Name="FASTRESC" DataType="text" SASFieldName="FASTRESC"
                Length="22">
                <Description>
                    <TranslatedText xml:lang="en">Character Result/Finding in Std
                        Format</TranslatedText>
                </Description>
            </ItemDef>
            <ItemDef OID="IT.FADX.FASTRESN" Name="FASTRESN" DataType="integer"
                SASFieldName="FASTRESN" Length="4">
                <Description>
                    <TranslatedText xml:lang="en">Numeric Result/Finding in Standard
                        Units</TranslatedText>
                </Description>
            </ItemDef>
            <ItemDef OID="IT.FADX.FASTRESU" Name="FASTRESU" DataType="text" SASFieldName="FASTRESU"
                Length="4">
                <Description>
                    <TranslatedText xml:lang="en">Standard Units</TranslatedText>
                </Description>
                <CodeListRef CodeListOID="CL.C71620"/>
            </ItemDef>
            <ItemDef OID="IT.FADX.FABLFL" Name="FABLFL" DataType="text" SASFieldName="FABLFL"
                Length="1">
                <Description>
                    <TranslatedText xml:lang="en">Baseline Flag</TranslatedText>
                </Description>
                <CodeListRef CodeListOID="CL.C66742"/>
            </ItemDef>
            <ItemDef OID="IT.FADX.FADTC" Name="FADTC" DataType="datetime" SASFieldName="FADTC"
                def:CommentOID="COM.ISO8601">
                <Description>
                    <TranslatedText xml:lang="en">Date/Time of Collection</TranslatedText>
                </Description>
            </ItemDef>
            <ItemDef OID="IT.FADX.FAEVLINT" Name="FAEVLINT" DataType="text" SASFieldName="FAEVLINT"
                Length="4">
                <Description>
                    <TranslatedText xml:lang="en">Evaluation Interval</TranslatedText>
                </Description>
            </ItemDef>
            <ItemDef OID="IT.FADX.DISINSEX" Name="DISINSEX" DataType="text" SASFieldName="DISINSEX"
                Length="9">
                <Description>
                    <TranslatedText xml:lang="en">Disconnect insulin while
                        exercising</TranslatedText>
                </Description>
            </ItemDef>
            <ItemDef OID="IT.FADX.SUSPINS" Name="SUSPINS" DataType="text" SASFieldName="SUSPINS"
                Length="9">
                <Description>
                    <TranslatedText xml:lang="en">Suspend insulin pump when
                        disconnected</TranslatedText>
                </Description>
            </ItemDef>
            <ItemDef OID="IT.FAML.STUDYID" Name="STUDYID" DataType="text" SASFieldName="STUDYID"
                Length="6">
                <Description>
                    <TranslatedText xml:lang="en">Study Identifier</TranslatedText>
                </Description>
            </ItemDef>
            <ItemDef OID="IT.FAML.DOMAIN" Name="DOMAIN" DataType="text" SASFieldName="DOMAIN"
                Length="2">
                <Description>
                    <TranslatedText xml:lang="en">Domain Abbreviation</TranslatedText>
                </Description>
                <CodeListRef CodeListOID="CL.DOMAIN.FA"/>
            </ItemDef>
            <ItemDef OID="IT.FAML.USUBJID" Name="USUBJID" DataType="text" SASFieldName="USUBJID"
                Length="20">
                <Description>
                    <TranslatedText xml:lang="en">Unique Subject Identifier</TranslatedText>
                </Description>
            </ItemDef>
            <ItemDef OID="IT.FAML.FASEQ" Name="FASEQ" DataType="integer" SASFieldName="FASEQ"
                Length="1">
                <Description>
                    <TranslatedText xml:lang="en">Sequence Number</TranslatedText>
                </Description>
            </ItemDef>
            <ItemDef OID="IT.FAML.FAGRPID" Name="FAGRPID" DataType="text" SASFieldName="FAGRPID"
                Length="200">
                <Description>
                    <TranslatedText xml:lang="en">Group ID</TranslatedText>
                </Description>
            </ItemDef>
            <ItemDef OID="IT.FAML.FASPID" Name="FASPID" DataType="text" SASFieldName="FASPID"
                Length="200">
                <Description>
                    <TranslatedText xml:lang="en">Sponsor-Defined Identifier</TranslatedText>
                </Description>
            </ItemDef>
            <ItemDef OID="IT.FAML.FALINKID" Name="FALINKID" DataType="text" SASFieldName="FALINKID"
                Length="200">
                <Description>
                    <TranslatedText xml:lang="en">Link ID</TranslatedText>
                </Description>
            </ItemDef>
            <ItemDef OID="IT.FAML.FATESTCD" Name="FATESTCD" DataType="text" SASFieldName="FATESTCD"
                Length="8">
                <Description>
                    <TranslatedText xml:lang="en">Findings About Test Short Name</TranslatedText>
                </Description>
            </ItemDef>
            <ItemDef OID="IT.FAML.FATEST" Name="FATEST" DataType="text" SASFieldName="FATEST"
                Length="200">
                <Description>
                    <TranslatedText xml:lang="en">Findings About Test Name</TranslatedText>
                </Description>
            </ItemDef>
            <ItemDef OID="IT.FAML.FAOBJ" Name="FAOBJ" DataType="text" SASFieldName="FAOBJ"
                Length="200">
                <Description>
                    <TranslatedText xml:lang="en">Object of the Observation</TranslatedText>
                </Description>
            </ItemDef>
            <ItemDef OID="IT.FAML.FACAT" Name="FACAT" DataType="text" SASFieldName="FACAT"
                Length="200">
                <Description>
                    <TranslatedText xml:lang="en">Category for Findings About</TranslatedText>
                </Description>
            </ItemDef>
            <ItemDef OID="IT.FAML.FASCAT" Name="FASCAT" DataType="text" SASFieldName="FASCAT"
                Length="200">
                <Description>
                    <TranslatedText xml:lang="en">Subcategory for Findings About</TranslatedText>
                </Description>
            </ItemDef>
            <ItemDef OID="IT.FAML.FAORRES" Name="FAORRES" DataType="text" SASFieldName="FAORRES"
                Length="200">
                <Description>
                    <TranslatedText xml:lang="en">Result or Finding in Original
                        Units</TranslatedText>
                </Description>
            </ItemDef>
            <ItemDef OID="IT.FAML.FAORRESU" Name="FAORRESU" DataType="text" SASFieldName="FAORRESU"
                Length="200">
                <Description>
                    <TranslatedText xml:lang="en">Original Units</TranslatedText>
                </Description>
                <CodeListRef CodeListOID="CL.C71620"/>
            </ItemDef>
            <ItemDef OID="IT.FAML.FASTRESC" Name="FASTRESC" DataType="text" SASFieldName="FASTRESC"
                Length="200">
                <Description>
                    <TranslatedText xml:lang="en">Character Result/Finding in Std
                        Format</TranslatedText>
                </Description>
            </ItemDef>
            <ItemDef OID="IT.FAML.FASTRESN" Name="FASTRESN" DataType="text" SASFieldName="FASTRESN"
                Length="200">
                <Description>
                    <TranslatedText xml:lang="en">Numeric Result/Finding in Standard
                        Units</TranslatedText>
                </Description>
            </ItemDef>
            <ItemDef OID="IT.FAML.FASTRESU" Name="FASTRESU" DataType="text" SASFieldName="FASTRESU"
                Length="200">
                <Description>
                    <TranslatedText xml:lang="en">Standard Units</TranslatedText>
                </Description>
                <CodeListRef CodeListOID="CL.C71620"/>
            </ItemDef>
            <ItemDef OID="IT.FAML.FAMETHOD" Name="FAMETHOD" DataType="text" SASFieldName="FAMETHOD"
                Length="200">
                <Description>
                    <TranslatedText xml:lang="en">Method of Test or Examination</TranslatedText>
                </Description>
            </ItemDef>
            <ItemDef OID="IT.FAML.FAANMETH" Name="FAANMETH" DataType="text" SASFieldName="FAANMETH"
                Length="200">
                <Description>
                    <TranslatedText xml:lang="en">Analysis Method</TranslatedText>
                </Description>
            </ItemDef>
            <ItemDef OID="IT.FAML.VISITNUM" Name="VISITNUM" DataType="text" SASFieldName="VISITNUM"
                Length="200">
                <Description>
                    <TranslatedText xml:lang="en">Visit Number</TranslatedText>
                </Description>
            </ItemDef>
            <ItemDef OID="IT.FAML.VISIT" Name="VISIT" DataType="text" SASFieldName="VISIT"
                Length="200">
                <Description>
                    <TranslatedText xml:lang="en">Visit Name</TranslatedText>
                </Description>
            </ItemDef>
            <ItemDef OID="IT.FAML.TAETORD" Name="TAETORD" DataType="text" SASFieldName="TAETORD"
                Length="200">
                <Description>
                    <TranslatedText xml:lang="en">Planned Order of Element within
                        Arm</TranslatedText>
                </Description>
            </ItemDef>
            <ItemDef OID="IT.FAML.FADTC" Name="FADTC" DataType="datetime" SASFieldName="FADTC"
                def:CommentOID="COM.ISO8601">
                <Description>
                    <TranslatedText xml:lang="en">Date/Time of Collection</TranslatedText>
                </Description>
            </ItemDef>
            <ItemDef OID="IT.FAML.MLSVGNUM" Name="MLSVGNUM" DataType="text" SASFieldName="MLSVGNUM"
                Length="200">
                <Description>
                    <TranslatedText xml:lang="en">Number of Servings</TranslatedText>
                </Description>
            </ItemDef>
            <ItemDef OID="IT.FAPR.STUDYID" Name="STUDYID" DataType="text" SASFieldName="STUDYID"
                Length="6">
                <Description>
                    <TranslatedText xml:lang="en">Study Identifier</TranslatedText>
                </Description>
            </ItemDef>
            <ItemDef OID="IT.FAPR.DOMAIN" Name="DOMAIN" DataType="text" SASFieldName="DOMAIN"
                Length="2">
                <Description>
                    <TranslatedText xml:lang="en">Domain Abbreviation</TranslatedText>
                </Description>
                <CodeListRef CodeListOID="CL.DOMAIN.FA"/>
            </ItemDef>
            <ItemDef OID="IT.FAPR.USUBJID" Name="USUBJID" DataType="text" SASFieldName="USUBJID"
                Length="20">
                <Description>
                    <TranslatedText xml:lang="en">Unique Subject Identifier</TranslatedText>
                </Description>
            </ItemDef>
            <ItemDef OID="IT.FAPR.FASEQ" Name="FASEQ" DataType="integer" SASFieldName="FASEQ"
                Length="1">
                <Description>
                    <TranslatedText xml:lang="en">Sequence Number</TranslatedText>
                </Description>
            </ItemDef>
            <ItemDef OID="IT.FAPR.FALNKID" Name="FALNKID" DataType="text" SASFieldName="FALNKID"
                Length="200">
                <Description>
                    <TranslatedText xml:lang="en">Link ID</TranslatedText>
                </Description>
            </ItemDef>
            <ItemDef OID="IT.FAPR.FATESTCD" Name="FATESTCD" DataType="text" SASFieldName="FATESTCD"
                Length="7">
                <Description>
                    <TranslatedText xml:lang="en">Findings About Test Short Name</TranslatedText>
                </Description>
            </ItemDef>
            <ItemDef OID="IT.FAPR.FATEST" Name="FATEST" DataType="text" SASFieldName="FATEST"
                Length="21">
                <Description>
                    <TranslatedText xml:lang="en">Findings About Test Name</TranslatedText>
                </Description>
            </ItemDef>
            <ItemDef OID="IT.FAPR.FAOBJ" Name="FAOBJ" DataType="text" SASFieldName="FAOBJ"
                Length="29">
                <Description>
                    <TranslatedText xml:lang="en">Object of the Observation</TranslatedText>
                </Description>
            </ItemDef>
            <ItemDef OID="IT.FAPR.FACAT" Name="FACAT" DataType="text" SASFieldName="FACAT"
                Length="25">
                <Description>
                    <TranslatedText xml:lang="en">Category for Findings About</TranslatedText>
                </Description>
            </ItemDef>
            <ItemDef OID="IT.FAPR.FAORRES" Name="FAORRES" DataType="float" SASFieldName="FAORRES"
                Length="16" SignificantDigits="8">
                <Description>
                    <TranslatedText xml:lang="en">Result or Finding in Original
                        Units</TranslatedText>
                </Description>
            </ItemDef>
            <ItemDef OID="IT.FAPR.FASTRESC" Name="FASTRESC" DataType="text" SASFieldName="FASTRESC"
                Length="16">
                <Description>
                    <TranslatedText xml:lang="en">Character Result/Finding in Std
                        Format</TranslatedText>
                </Description>
            </ItemDef>
            <ItemDef OID="IT.FAPR.FASTRESN" Name="FASTRESN" DataType="float" SASFieldName="FASTRESN"
                Length="16" SignificantDigits="8">
                <Description>
                    <TranslatedText xml:lang="en">Numeric Result/Finding in Standard
                        Units</TranslatedText>
                </Description>
            </ItemDef>
            <ItemDef OID="IT.FAPR.FADTC" Name="FADTC" DataType="datetime" SASFieldName="FADTC"
                def:CommentOID="COM.ISO8601">
                <Description>
                    <TranslatedText xml:lang="en">Date/Time of Collection</TranslatedText>
                </Description>
            </ItemDef>
            <ItemDef OID="IT.FAPR.FAENDTC" Name="FAENDTC" DataType="datetime" SASFieldName="FAENDTC"
                def:CommentOID="COM.ISO8601">
                <Description>
                    <TranslatedText xml:lang="en">End Date/Time of Collection</TranslatedText>
                </Description>
            </ItemDef>
            <ItemDef OID="IT.FACM.STUDYID" Name="STUDYID" DataType="text" SASFieldName="STUDYID"
                Length="6">
                <Description>
                    <TranslatedText xml:lang="en">Study Identifier</TranslatedText>
                </Description>
            </ItemDef>
            <ItemDef OID="IT.FACM.DOMAIN" Name="DOMAIN" DataType="text" SASFieldName="DOMAIN"
                Length="2">
                <Description>
                    <TranslatedText xml:lang="en">Domain Abbreviation</TranslatedText>
                </Description>
                <CodeListRef CodeListOID="CL.DOMAIN.FA"/>
            </ItemDef>
            <ItemDef OID="IT.FACM.USUBJID" Name="USUBJID" DataType="text" SASFieldName="USUBJID"
                Length="14">
                <Description>
                    <TranslatedText xml:lang="en">Unique Subject Identifier</TranslatedText>
                </Description>
            </ItemDef>
            <ItemDef OID="IT.FACM.SPDEVID" Name="SPDEVID" DataType="text" SASFieldName="SPDEVID"
                Length="200">
                <Description>
                    <TranslatedText xml:lang="en">Sponsor Device Identifier</TranslatedText>
                </Description>
            </ItemDef>
            <ItemDef OID="IT.FACM.FASEQ" Name="FASEQ" DataType="integer" SASFieldName="FASEQ"
                Length="1">
                <Description>
                    <TranslatedText xml:lang="en">Sequence Number</TranslatedText>
                </Description>
            </ItemDef>
            <ItemDef OID="IT.FACM.FALNKID" Name="FALNKID" DataType="text" SASFieldName="FALNKID"
                Length="200">
                <Description>
                    <TranslatedText xml:lang="en">Link ID</TranslatedText>
                </Description>
            </ItemDef>
            <ItemDef OID="IT.FACM.FATESTCD" Name="FATESTCD" DataType="text" SASFieldName="FATESTCD"
                Length="200">
                <Description>
                    <TranslatedText xml:lang="en">Findings About Test Short Name</TranslatedText>
                </Description>
            </ItemDef>
            <ItemDef OID="IT.FACM.FATEST" Name="FATEST" DataType="text" SASFieldName="FATEST"
                Length="15">
                <Description>
                    <TranslatedText xml:lang="en">Findings About Test Name</TranslatedText>
                </Description>
            </ItemDef>
            <ItemDef OID="IT.FACM.FAOBJ" Name="FAOBJ" DataType="text" SASFieldName="FAOBJ"
                Length="7">
                <Description>
                    <TranslatedText xml:lang="en">Object of the Observation</TranslatedText>
                </Description>
            </ItemDef>
            <ItemDef OID="IT.FACM.FACAT" Name="FACAT" DataType="text" SASFieldName="FACAT"
                Length="200">
                <Description>
                    <TranslatedText xml:lang="en">Category for Findings About</TranslatedText>
                </Description>
            </ItemDef>
            <ItemDef OID="IT.FACM.FAORRES" Name="FAORRES" DataType="text" SASFieldName="FAORRES"
                Length="7">
                <Description>
                    <TranslatedText xml:lang="en">Result or Finding in Original
                        Units</TranslatedText>
                </Description>
            </ItemDef>
            <ItemDef OID="IT.FACM.FAORRESU" Name="FAORRESU" DataType="text" SASFieldName="FAORRESU"
                Length="1">
                <Description>
                    <TranslatedText xml:lang="en">Original Units</TranslatedText>
                </Description>
                <CodeListRef CodeListOID="CL.C71620"/>
            </ItemDef>
            <ItemDef OID="IT.FACM.FASTRESC" Name="FASTRESC" DataType="text" SASFieldName="FASTRESC"
                Length="200">
                <Description>
                    <TranslatedText xml:lang="en">Character Result/Finding in Std
                        Format</TranslatedText>
                </Description>
            </ItemDef>
            <ItemDef OID="IT.FACM.FASTRESN" Name="FASTRESN" DataType="float" SASFieldName="FASTRESN"
                Length="5" SignificantDigits="3">
                <Description>
                    <TranslatedText xml:lang="en">Numeric Result/Finding in Standard
                        Units</TranslatedText>
                </Description>
            </ItemDef>
            <ItemDef OID="IT.FACM.FASTRESU" Name="FASTRESU" DataType="text" SASFieldName="FASTRESU"
                Length="1">
                <Description>
                    <TranslatedText xml:lang="en">Standard Units</TranslatedText>
                </Description>
                <CodeListRef CodeListOID="CL.C71620"/>
            </ItemDef>
            <ItemDef OID="IT.FACM.FADTC" Name="FADTC" DataType="datetime" SASFieldName="FADTC"
                def:CommentOID="COM.ISO8601">
                <Description>
                    <TranslatedText xml:lang="en">Date/Time of Collection</TranslatedText>
                </Description>
            </ItemDef>
            <ItemDef OID="IT.FACM.FADUR" Name="FADUR" DataType="text" SASFieldName="FADUR"
                Length="12" def:CommentOID="COM.ISO8601">
                <Description>
                    <TranslatedText xml:lang="en">Collected duration of finding. </TranslatedText>
                </Description>
            </ItemDef>
            <ItemDef OID="IT.FACM.INSDVSRC" Name="INSDVSRC" DataType="text" SASFieldName="INSDVSRC"
                Length="10">
                <Description>
                    <TranslatedText xml:lang="en">Insulin device Source</TranslatedText>
                </Description>
            </ItemDef>
            <ItemDef OID="IT.FACM.INSSTYPE" Name="INSSTYPE" DataType="text" SASFieldName="INSSTYPE"
                Length="26">
                <Description>
                    <TranslatedText xml:lang="en">Insulin subtype</TranslatedText>
                </Description>
            </ItemDef>
            <ItemDef OID="IT.FACM.INSNMBOL" Name="INSNMBOL" DataType="float" SASFieldName="INSNMBOL"
                Length="6">
                <Description>
                    <TranslatedText xml:lang="en">Total amount of normal bolus</TranslatedText>
                </Description>
            </ItemDef>
            <ItemDef OID="IT.FACM.INSEXBOL" Name="INSEXBOL" DataType="float" SASFieldName="INSEXBOL"
                Length="6">
                <Description>
                    <TranslatedText xml:lang="en">Total amount of extended bolus</TranslatedText>
                </Description>
            </ItemDef>
            <ItemDef OID="IT.LB.STUDYID" Name="STUDYID" DataType="text" SASFieldName="STUDYID"
                Length="6">
                <Description>
                    <TranslatedText xml:lang="en">Study Identifier</TranslatedText>
                </Description>
            </ItemDef>
            <ItemDef OID="IT.LB.DOMAIN" Name="DOMAIN" DataType="text" SASFieldName="DOMAIN"
                Length="2">
                <Description>
                    <TranslatedText xml:lang="en">Domain Abbreviation</TranslatedText>
                </Description>
                <CodeListRef CodeListOID="CL.DOMAIN.LB"/>
            </ItemDef>
            <ItemDef OID="IT.LB.USUBJID" Name="USUBJID" DataType="text" SASFieldName="USUBJID"
                Length="20">
                <Description>
                    <TranslatedText xml:lang="en">Unique Subject Identifier</TranslatedText>
                </Description>
            </ItemDef>
            <ItemDef OID="IT.LB.LBSEQ" Name="LBSEQ" DataType="integer" SASFieldName="LBSEQ"
                Length="1">
                <Description>
                    <TranslatedText xml:lang="en">Sequence Number</TranslatedText>
                </Description>
            </ItemDef>
            <ItemDef OID="IT.LB.LBTESTCD" Name="LBTESTCD" DataType="text" SASFieldName="LBTESTCD"
                Length="200">
                <Description>
                    <TranslatedText xml:lang="en">Lab Test or Examination Short
                        Name.</TranslatedText>
                </Description>
                <CodeListRef CodeListOID="CL.C65047"/>
            </ItemDef>
            <ItemDef OID="IT.LB.LBTEST" Name="LBTEST" DataType="text" SASFieldName="LBTEST"
                Length="200">
                <Description>
                    <TranslatedText xml:lang="en">Lab Test or Examination Name</TranslatedText>
                </Description>
                <CodeListRef CodeListOID="CL.C67154"/>
            </ItemDef>
            <ItemDef OID="IT.LB.LBCAT" Name="LBCAT" DataType="text" SASFieldName="LBCAT" Length="16">
                <Description>
                    <TranslatedText xml:lang="en">Category for Lab Test</TranslatedText>
                </Description>
            </ItemDef>
            <ItemDef OID="IT.LB.LBORRES" Name="LBORRES" DataType="text" SASFieldName="LBORRES"
                Length="5">
                <Description>
                    <TranslatedText xml:lang="en">Result or Finding in Original
                        Units</TranslatedText>
                </Description>
            </ItemDef>
            <ItemDef OID="IT.LB.LBORRESU" Name="LBORRESU" DataType="text" SASFieldName="LBORRESU"
                Length="1">
                <Description>
                    <TranslatedText xml:lang="en">Original Units</TranslatedText>
                </Description>
                <CodeListRef CodeListOID="CL.C71620"/>
            </ItemDef>
            <ItemDef OID="IT.LB.LBSTRESC" Name="LBSTRESC" DataType="text" SASFieldName="LBSTRESC"
                Length="200">
                <Description>
                    <TranslatedText xml:lang="en">Character Result/Finding in Std
                        Format</TranslatedText>
                </Description>
                <CodeListRef CodeListOID="CL.C102580"/>
            </ItemDef>
            <ItemDef OID="IT.LB.LBSTRESN" Name="LBSTRESN" DataType="integer" SASFieldName="LBSTRESN"
                Length="4">
                <Description>
                    <TranslatedText xml:lang="en">Numeric Result/Finding in Standard
                        Units</TranslatedText>
                </Description>
            </ItemDef>
            <ItemDef OID="IT.LB.LBSTRESU" Name="LBSTRESU" DataType="text" SASFieldName="LBSTRESU"
                Length="1">
                <Description>
                    <TranslatedText xml:lang="en">Standard Units</TranslatedText>
                </Description>
                <CodeListRef CodeListOID="CL.C71620"/>
            </ItemDef>
            <ItemDef OID="IT.LB.VISITNUM" Name="VISITNUM" DataType="integer" SASFieldName="VISITNUM"
                Length="4">
                <Description>
                    <TranslatedText xml:lang="en">Visit Number</TranslatedText>
                </Description>
            </ItemDef>
            <ItemDef OID="IT.LB.VISIT" Name="VISIT" DataType="text" SASFieldName="VISIT" Length="9">
                <Description>
                    <TranslatedText xml:lang="en">Visit Name</TranslatedText>
                </Description>
            </ItemDef>
            <ItemDef OID="IT.LB.VISITDY" Name="VISITDY" DataType="integer" SASFieldName="VISITDY"
                Length="4">
                <Description>
                    <TranslatedText xml:lang="en">Planned Study Day of Visit</TranslatedText>
                </Description>
            </ItemDef>
            <ItemDef OID="IT.LB.TAETORD" Name="TAETORD" DataType="integer" SASFieldName="TAETORD"
                Length="4">
                <Description>
                    <TranslatedText xml:lang="en">Planned Order of Element within
                        Arm</TranslatedText>
                </Description>
            </ItemDef>
            <ItemDef OID="IT.LB.EPOCH" Name="EPOCH" DataType="text" SASFieldName="EPOCH" Length="9">
                <Description>
                    <TranslatedText xml:lang="en">Epoch</TranslatedText>
                </Description>
                <CodeListRef CodeListOID="CL.C99079"/>
            </ItemDef>
            <ItemDef OID="IT.LB.LBSOURCE" Name="LBSOURCE" DataType="text" SASFieldName="LBSOURCE"
                Length="200">
                <Description>
                    <TranslatedText xml:lang="en">Source of Data</TranslatedText>
                </Description>
            </ItemDef>
            <ItemDef OID="IT.LB.LBCRNORD" Name="LBCRNORD" DataType="text" SASFieldName="LBCRNORD"
                Length="200">
                <Description>
                    <TranslatedText xml:lang="en">Chronological Order</TranslatedText>
                </Description>
            </ItemDef>
            <ItemDef OID="IT.LB.LBSETTING" Name="LBSETTIN" DataType="text" SASFieldName="LBSETTIN"
                Length="200">
                <Description>
                    <TranslatedText xml:lang="en">Event Setting</TranslatedText>
                </Description>
            </ItemDef>
            <ItemDef OID="IT.LB.LBTMINT" Name="LBTMINT" DataType="text" SASFieldName="LBTMINT"
                Length="50">
                <Description>
                    <TranslatedText xml:lang="en">Time Interval</TranslatedText>
                </Description>
            </ItemDef>
            <ItemDef OID="IT.ML.STUDYID" Name="STUDYID" DataType="text" SASFieldName="STUDYID"
                Length="6">
                <Description>
                    <TranslatedText xml:lang="en">Study Identifier</TranslatedText>
                </Description>
            </ItemDef>
            <ItemDef OID="IT.ML.DOMAIN" Name="DOMAIN" DataType="text" SASFieldName="DOMAIN"
                Length="2">
                <Description>
                    <TranslatedText xml:lang="en">Domain Abbreviation</TranslatedText>
                </Description>
                <CodeListRef CodeListOID="CL.DOMAIN.ML"/>
            </ItemDef>
            <ItemDef OID="IT.ML.USUBJID" Name="USUBJID" DataType="text" SASFieldName="USUBJID"
                Length="20">
                <Description>
                    <TranslatedText xml:lang="en">Unique Subject Identifier</TranslatedText>
                </Description>
            </ItemDef>
            <ItemDef OID="IT.ML.MLSEQ" Name="MLSEQ" DataType="text" SASFieldName="MLSEQ"
                Length="200">
                <Description>
                    <TranslatedText xml:lang="en">Sequence Number</TranslatedText>
                </Description>
            </ItemDef>
            <ItemDef OID="IT.ML.MLLNKID" Name="MLLNKID" DataType="text" SASFieldName="MLLNKID"
                Length="200">
                <Description>
                    <TranslatedText xml:lang="en">Link ID</TranslatedText>
                </Description>
            </ItemDef>
            <ItemDef OID="IT.ML.MLGRPID" Name="MLGRPID" DataType="text" SASFieldName="MLGRPID"
                Length="200">
                <Description>
                    <TranslatedText xml:lang="en">Group ID</TranslatedText>
                </Description>
            </ItemDef>
            <ItemDef OID="IT.ML.MLTRT" Name="MLTRT" DataType="text" SASFieldName="MLTRT"
                Length="200">
                <Description>
                    <TranslatedText xml:lang="en">Name of Meal</TranslatedText>
                </Description>
            </ItemDef>
            <ItemDef OID="IT.ML.MLCAT" Name="MLCAT" DataType="text" SASFieldName="MLCAT"
                Length="200">
                <Description>
                    <TranslatedText xml:lang="en">Category for Meal</TranslatedText>
                </Description>
            </ItemDef>
            <ItemDef OID="IT.ML.MLDOSE" Name="MLDOSE" DataType="integer" SASFieldName="MLDOSE"
                Length="4">
                <Description>
                    <TranslatedText xml:lang="en">Dose</TranslatedText>
                </Description>
            </ItemDef>
            <ItemDef OID="IT.ML.MLDOSTOT" Name="MLDOSTOT" DataType="integer" SASFieldName="MLDOSTOT"
                Length="4">
                <Description>
                    <TranslatedText xml:lang="en">Total Daily Dose</TranslatedText>
                </Description>
            </ItemDef>
            <ItemDef OID="IT.ML.MLDOSU" Name="MLDOSU" DataType="text" SASFieldName="MLDOSU"
                Length="1">
                <Description>
                    <TranslatedText xml:lang="en">Dose Units</TranslatedText>
                </Description>
                <CodeListRef CodeListOID="CL.C71620"/>
            </ItemDef>
            <ItemDef OID="IT.ML.MLDOSFRQ" Name="MLDOSFRQ" DataType="text" SASFieldName="MLDOSFRQ"
                Length="200">
                <Description>
                    <TranslatedText xml:lang="en">Dosing Frequency per Interval</TranslatedText>
                </Description>
                <CodeListRef CodeListOID="CL.C71113"/>
            </ItemDef>
            <ItemDef OID="IT.ML.VISITNUM" Name="VISITNUM" DataType="integer" SASFieldName="VISITNUM"
                Length="4">
                <Description>
                    <TranslatedText xml:lang="en">Visit Number</TranslatedText>
                </Description>
            </ItemDef>
            <ItemDef OID="IT.ML.VISIT" Name="VISIT" DataType="text" SASFieldName="VISIT" Length="9">
                <Description>
                    <TranslatedText xml:lang="en">Visit Name</TranslatedText>
                </Description>
            </ItemDef>
            <ItemDef OID="IT.ML.MLDTC" Name="MLDTC" DataType="datetime" SASFieldName="MLDTC"
                def:CommentOID="COM.ISO8601">
                <Description>
                    <TranslatedText xml:lang="en">Date/Time of Collection</TranslatedText>
                </Description>
            </ItemDef>
            <ItemDef OID="IT.ML.MLSVGNUM" Name="MLSVGNUM" DataType="integer" SASFieldName="MLSVGNUM"
                Length="4">
                <Description>
                    <TranslatedText xml:lang="en">Number of Servings</TranslatedText>
                </Description>
            </ItemDef>
            <ItemDef OID="IT.ML.MLDECDCD" Name="MLDECDCD" DataType="text" SASFieldName="MLDECDCD"
                Length="200">
                <Description>
                    <TranslatedText xml:lang="en">Decode Code</TranslatedText>
                </Description>
            </ItemDef>
            <ItemDef OID="IT.ML.MLDNAMVR" Name="MLDNAMVR" DataType="text" SASFieldName="MLDNAMVR"
                Length="15">
                <Description>
                    <TranslatedText xml:lang="en">Dictionary Name and Version</TranslatedText>
                </Description>
            </ItemDef>
            <ItemDef OID="IT.RELREC.STUDYID" Name="STUDYID" DataType="text" SASFieldName="STUDYID"
                Length="6">
                <Description>
                    <TranslatedText xml:lang="en">Study Identifier</TranslatedText>
                </Description>
            </ItemDef>
            <ItemDef OID="IT.RELREC.RDOMAIN" Name="RDOMAIN" DataType="text" SASFieldName="RDOMAIN"
                Length="200">
                <Description>
                    <TranslatedText xml:lang="en">Related Domain Abbreviation</TranslatedText>
                </Description>
            </ItemDef>
            <ItemDef OID="IT.RELREC.USUBJID" Name="USUBJID" DataType="text" SASFieldName="USUBJID"
                Length="20">
                <Description>
                    <TranslatedText xml:lang="en">Unique Subject Identifier</TranslatedText>
                </Description>
            </ItemDef>
            <ItemDef OID="IT.RELREC.IDVAR" Name="IDVAR" DataType="text" SASFieldName="IDVAR"
                Length="200">
                <Description>
                    <TranslatedText xml:lang="en">Identifying Variable</TranslatedText>
                </Description>
            </ItemDef>
            <ItemDef OID="IT.RELREC.IDVARVAL" Name="IDVARVAL" DataType="text"
                SASFieldName="IDVARVAL" Length="200">
                <Description>
                    <TranslatedText xml:lang="en">Identifying Variable Value</TranslatedText>
                </Description>
            </ItemDef>
            <ItemDef OID="IT.RELREC.RELTYPE" Name="RELTYPE" DataType="text" SASFieldName="RELTYPE"
                Length="200">
                <Description>
                    <TranslatedText xml:lang="en">Relationship Type</TranslatedText>
                </Description>
            </ItemDef>
            <ItemDef OID="IT.RELREC.RELID" Name="RELID" DataType="text" SASFieldName="RELID"
                Length="200">
                <Description>
                    <TranslatedText xml:lang="en">Relationship Identifier</TranslatedText>
                </Description>
            </ItemDef>
            <ItemDef OID="IT.PR.STUDYID" Name="STUDYID" DataType="text" SASFieldName="STUDYID"
                Length="6">
                <Description>
                    <TranslatedText xml:lang="en">Study Identifier</TranslatedText>
                </Description>
            </ItemDef>
            <ItemDef OID="IT.PR.DOMAIN" Name="DOMAIN" DataType="text" SASFieldName="DOMAIN"
                Length="2">
                <Description>
                    <TranslatedText xml:lang="en">Domain Abbreviation</TranslatedText>
                </Description>
                <CodeListRef CodeListOID="CL.DOMAIN.PR"/>
            </ItemDef>
            <ItemDef OID="IT.PR.USUBJID" Name="USUBJID" DataType="text" SASFieldName="USUBJID"
                Length="20">
                <Description>
                    <TranslatedText xml:lang="en">Unique Subject Identifier</TranslatedText>
                </Description>
            </ItemDef>
            <ItemDef OID="IT.PR.PRSEQ" Name="PRSEQ" DataType="integer" SASFieldName="PRSEQ"
                Length="4">
                <Description>
                    <TranslatedText xml:lang="en">Sequence Number</TranslatedText>
                </Description>
            </ItemDef>
            <ItemDef OID="IT.PR.PRLNKID" Name="PRLNKID" DataType="text" SASFieldName="PRLNKID"
                Length="200">
                <Description>
                    <TranslatedText xml:lang="en">Link ID</TranslatedText>
                </Description>
            </ItemDef>
            <ItemDef OID="IT.PR.PRGRPID" Name="PRGRPID" DataType="text" SASFieldName="PRGRPID"
                Length="200">
                <Description>
                    <TranslatedText xml:lang="en">Group ID</TranslatedText>
                </Description>
            </ItemDef>
            <ItemDef OID="IT.PR.PRLNKGRP" Name="PRLNKGRP" DataType="text" SASFieldName="PRLNKGRP"
                Length="200">
                <Description>
                    <TranslatedText xml:lang="en">Link Group ID</TranslatedText>
                </Description>
            </ItemDef>
            <ItemDef OID="IT.PR.PRTRT" Name="PRTRT" DataType="text" SASFieldName="PRTRT"
                Length="200">
                <Description>
                    <TranslatedText xml:lang="en">Reported Name of Procedure</TranslatedText>
                </Description>
            </ItemDef>
            <ItemDef OID="IT.PR.PRDECOD" Name="PRDECOD" DataType="text" SASFieldName="PRDECOD"
                Length="200">
                <Description>
                    <TranslatedText xml:lang="en">Standardized Procedure Name</TranslatedText>
                </Description>
            </ItemDef>
            <ItemDef OID="IT.PR.PRCAT" Name="PRCAT" DataType="text" SASFieldName="PRCAT"
                Length="200">
                <Description>
                    <TranslatedText xml:lang="en">Category</TranslatedText>
                </Description>
            </ItemDef>
            <ItemDef OID="IT.PR.PRSCAT" Name="PRSCAT" DataType="text" SASFieldName="PRSCAT"
                Length="200">
                <Description>
                    <TranslatedText xml:lang="en">Subcategory</TranslatedText>
                </Description>
            </ItemDef>
            <ItemDef OID="IT.PR.PRSTDTC" Name="PRSTDTC" DataType="text" SASFieldName="PRSTDTC"
                Length="200">
                <Description>
                    <TranslatedText xml:lang="en">Start Date/Time of Procedure</TranslatedText>
                </Description>
            </ItemDef>
            <ItemDef OID="IT.PR.PRRFTDTC" Name="PRRFTDTC" DataType="text" SASFieldName="PRRFTDTC"
                Length="200">
                <Description>
                    <TranslatedText xml:lang="en">Date/Time of Reference Time Point</TranslatedText>
                </Description>
            </ItemDef>
            <ItemDef OID="IT.PR.PRSTRTPT" Name="PRSTRTPT" DataType="text" SASFieldName="PRSTRTPT"
                Length="200">
                <Description>
                    <TranslatedText xml:lang="en">Start Relative to Reference Time
                        Point</TranslatedText>
                </Description>
            </ItemDef>
            <ItemDef OID="IT.PR.PRSTTPT" Name="PRSTTPT" DataType="text" SASFieldName="PRSTTPT"
                Length="200">
                <Description>
                    <TranslatedText xml:lang="en">Start Reference Time Point</TranslatedText>
                </Description>
            </ItemDef>
            <ItemDef OID="IT.PR.PRENRTPT" Name="PRENRTPT" DataType="text" SASFieldName="PRENRTPT"
                Length="200">
                <Description>
                    <TranslatedText xml:lang="en">End Relative to Reference Time
                        Point</TranslatedText>
                </Description>
            </ItemDef>
            <ItemDef OID="IT.PR.PRENTPT" Name="PRENTPT" DataType="text" SASFieldName="PRENTPT"
                Length="200">
                <Description>
                    <TranslatedText xml:lang="en">End Reference Time Point</TranslatedText>
                </Description>
            </ItemDef>
            <ItemDef OID="IT.PR.PRTRTC" Name="PRTRTC" DataType="text" SASFieldName="PRTRTC"
                Length="200">
                <Description>
                    <TranslatedText xml:lang="en">Participant reported activity /PRTRT as
                        collected</TranslatedText>
                </Description>
            </ItemDef>
            <ItemDef OID="IT.PR.PLNEXDUR" Name="PLNEXDUR" DataType="text" SASFieldName="PLNEXDUR"
                Length="200">
                <Description>
                    <TranslatedText xml:lang="en">Participant reported activity duration in
                        minutes</TranslatedText>
                </Description>
            </ItemDef>
            <ItemDef OID="IT.PR.EXCINTSY" Name="EXCINTSY" DataType="text" SASFieldName="EXCINTSY"
                Length="200">
                <Description>
                    <TranslatedText xml:lang="en">Participant reported activity intensity
                        level</TranslatedText>
                </Description>
            </ItemDef>
            <ItemDef OID="IT.PR.HRSLSTML" Name="HRSLSTML" DataType="text" SASFieldName="HRSLSTML"
                Length="200">
                <Description>
                    <TranslatedText xml:lang="en">Participant reported hours since last meal prior
                        to start of exercise</TranslatedText>
                </Description>
            </ItemDef>
            <ItemDef OID="IT.PR.EXCOMP" Name="EXCOMP" DataType="text" SASFieldName="EXCOMP"
                Length="200">
                <Description>
                    <TranslatedText xml:lang="en">Participant reported if activity was competitive
                        or not</TranslatedText>
                </Description>
            </ItemDef>
            <ItemDef OID="IT.PR.SNKBEFEX" Name="SNKBEFEX" DataType="text" SASFieldName="SNKBEFEX"
                Length="200">
                <Description>
                    <TranslatedText xml:lang="en">Participant reported if snack was eaten before the
                        activity</TranslatedText>
                </Description>
            </ItemDef>
            <ItemDef OID="IT.PR.INUSDTDY" Name="INUSDTDY" DataType="text" SASFieldName="INUSDTDY"
                Length="200">
                <Description>
                    <TranslatedText xml:lang="en">Participant reported if inhaler had been used at
                        any time during the day prior to the activity</TranslatedText>
                </Description>
            </ItemDef>
            <ItemDef OID="IT.PR.BETAGTDY" Name="BETAGTDY" DataType="text" SASFieldName="BETAGTDY"
                Length="200">
                <Description>
                    <TranslatedText xml:lang="en">Participant reported if oral beta agonist had been
                        used at any time during the day prior to the activity</TranslatedText>
                </Description>
            </ItemDef>
            <ItemDef OID="IT.PR.RESQCARB" Name="RESQCARB" DataType="text" SASFieldName="RESQCARB"
                Length="200">
                <Description>
                    <TranslatedText xml:lang="en">Participant reported if they used rescue carbs
                        during the activity</TranslatedText>
                </Description>
            </ItemDef>
            <ItemDef OID="IT.RP.STUDYID" Name="STUDYID" DataType="text" SASFieldName="STUDYID"
                Length="6">
                <Description>
                    <TranslatedText xml:lang="en">Study Identifier</TranslatedText>
                </Description>
            </ItemDef>
            <ItemDef OID="IT.RP.DOMAIN" Name="DOMAIN" DataType="text" SASFieldName="DOMAIN"
                Length="2">
                <Description>
                    <TranslatedText xml:lang="en">Domain Abbreviation</TranslatedText>
                </Description>
                <CodeListRef CodeListOID="CL.DOMAIN.RP"/>
            </ItemDef>
            <ItemDef OID="IT.RP.USUBJID" Name="USUBJID" DataType="text" SASFieldName="USUBJID"
                Length="20">
                <Description>
                    <TranslatedText xml:lang="en">Unique Subject Identifier</TranslatedText>
                </Description>
            </ItemDef>
            <ItemDef OID="IT.RP.RPTESTCD" Name="RPTESTCD" DataType="text" SASFieldName="RPTESTCD"
                Length="8">
                <Description>
                    <TranslatedText xml:lang="en">Short Name of Reproductive Test</TranslatedText>
                </Description>
            </ItemDef>
            <ItemDef OID="IT.RP.RPTEST" Name="RPTEST" DataType="text" SASFieldName="RPTEST"
                Length="40">
                <Description>
                    <TranslatedText xml:lang="en">Name of Reproductive Test</TranslatedText>
                </Description>
            </ItemDef>
            <ItemDef OID="IT.RP.RPORRES" Name="RPORRES" DataType="datetime" SASFieldName="RPORRES">
                <Description>
                    <TranslatedText xml:lang="en">Result or Finding in Original
                        Units</TranslatedText>
                </Description>
            </ItemDef>
            <ItemDef OID="IT.RP.RPSTRESC" Name="RPSTRESC" DataType="datetime"
                SASFieldName="RPSTRESC">
                <Description>
                    <TranslatedText xml:lang="en">Character Result/Finding in Std
                        Format</TranslatedText>
                </Description>
            </ItemDef>
            <ItemDef OID="IT.RP.RPDTC" Name="RPDTC" DataType="datetime" SASFieldName="RPDTC">
                <Description>
                    <TranslatedText xml:lang="en">Date/Time of Collection</TranslatedText>
                </Description>
            </ItemDef>
            <ItemDef OID="IT.SUPPDM.STUDYID" Name="STUDYID" DataType="text" SASFieldName="STUDYID"
                Length="6">
                <Description>
                    <TranslatedText xml:lang="en">Study Identifier</TranslatedText>
                </Description>
            </ItemDef>
            <ItemDef OID="IT.SUPPDM.RDOMAIN" Name="RDOMAIN" DataType="text" SASFieldName="RDOMAIN"
                Length="2">
                <Description>
                    <TranslatedText xml:lang="en">Related Domain Abbreviation</TranslatedText>
                </Description>
            </ItemDef>
            <ItemDef OID="IT.SUPPDM.USUBJID" Name="USUBJID" DataType="text" SASFieldName="USUBJID"
                Length="20">
                <Description>
                    <TranslatedText xml:lang="en">Unique Subject Identifier</TranslatedText>
                </Description>
            </ItemDef>
            <ItemDef OID="IT.SUPPDM.IDVAR" Name="IDVAR" DataType="text" SASFieldName="IDVAR"
                Length="200">
                <Description>
                    <TranslatedText xml:lang="en">Identifying Variable</TranslatedText>
                </Description>
            </ItemDef>
            <ItemDef OID="IT.SUPPDM.IDVARVAL" Name="IDVARVAL" DataType="text"
                SASFieldName="IDVARVAL" Length="200">
                <Description>
                    <TranslatedText xml:lang="en">Identifying Variable Value</TranslatedText>
                </Description>
            </ItemDef>
            <ItemDef OID="IT.SUPPDM.QNAM" Name="QNAM" DataType="text" SASFieldName="QNAM"
                Length="200">
                <Description>
                    <TranslatedText xml:lang="en">Qualifier Variable Name</TranslatedText>
                </Description>
            </ItemDef>
            <ItemDef OID="IT.SUPPDM.QLABEL" Name="QLABEL" DataType="text" SASFieldName="QLABEL"
                Length="200">
                <Description>
                    <TranslatedText xml:lang="en">Qualifier Variable Label</TranslatedText>
                </Description>
            </ItemDef>
            <ItemDef OID="IT.SUPPDM.QVAL" Name="QVAL" DataType="text" SASFieldName="QVAL"
                Length="200">
                <Description>
                    <TranslatedText xml:lang="en">Data Value</TranslatedText>
                </Description>
            </ItemDef>
            <ItemDef OID="IT.SUPPDM.QORIG" Name="QORIG" DataType="text" SASFieldName="QORIG"
                Length="3">
                <Description>
                    <TranslatedText xml:lang="en">Origin</TranslatedText>
                </Description>
            </ItemDef>
            <ItemDef OID="IT.SUPPDM.QEVAL" Name="QEVAL" DataType="text" SASFieldName="QEVAL"
                Length="200">
                <Description>
                    <TranslatedText xml:lang="en">Evaluator</TranslatedText>
                </Description>
            </ItemDef>
            <ItemDef OID="IT.QS.STUDYID" Name="STUDYID" DataType="text" SASFieldName="STUDYID"
                Length="6">
                <Description>
                    <TranslatedText xml:lang="en">Study Identifier</TranslatedText>
                </Description>
            </ItemDef>
            <ItemDef OID="IT.QS.DOMAIN" Name="DOMAIN" DataType="text" SASFieldName="DOMAIN"
                Length="2">
                <Description>
                    <TranslatedText xml:lang="en">Domain Abbreviation</TranslatedText>
                </Description>
                <CodeListRef CodeListOID="CL.DOMAIN.QS"/>
            </ItemDef>
            <ItemDef OID="IT.QS.USUBJID" Name="USUBJID" DataType="text" SASFieldName="USUBJID"
                Length="20">
                <Description>
                    <TranslatedText xml:lang="en">Unique Subject Identifier</TranslatedText>
                </Description>
            </ItemDef>
            <ItemDef OID="IT.QS.QSSEQ" Name="QSSEQ" DataType="integer" SASFieldName="QSSEQ"
                Length="2">
                <Description>
                    <TranslatedText xml:lang="en">Sequence Number</TranslatedText>
                </Description>
            </ItemDef>
            <ItemDef OID="IT.QS.QSGRPID" Name="QSGRPID" DataType="text" SASFieldName="QSGRPID"
                Length="200">
                <Description>
                    <TranslatedText xml:lang="en">Group ID</TranslatedText>
                </Description>
            </ItemDef>
            <ItemDef OID="IT.QS.QSTESTCD" Name="QSTESTCD" DataType="text" SASFieldName="QSTESTCD"
                Length="8">
                <Description>
                    <TranslatedText xml:lang="en">Question Short Name</TranslatedText>
                </Description>
            </ItemDef>
            <ItemDef OID="IT.QS.QSTEST" Name="QSTEST" DataType="text" SASFieldName="QSTEST"
                Length="40">
                <Description>
                    <TranslatedText xml:lang="en">Question Name</TranslatedText>
                </Description>
            </ItemDef>
            <ItemDef OID="IT.QS.QSCAT" Name="QSCAT" DataType="text" SASFieldName="QSCAT" Length="55">
                <Description>
                    <TranslatedText xml:lang="en">Category of Question</TranslatedText>
                </Description>
            </ItemDef>
            <ItemDef OID="IT.QS.QSORRES" Name="QSORRES" DataType="text" SASFieldName="QSORRES"
                Length="200">
                <Description>
                    <TranslatedText xml:lang="en">Finding in Original Units</TranslatedText>
                </Description>
            </ItemDef>
            <ItemDef OID="IT.QS.QSORRESU" Name="QSORRESU" DataType="text" SASFieldName="QSORRESU"
                Length="7">
                <Description>
                    <TranslatedText xml:lang="en">Original Units</TranslatedText>
                </Description>
                <CodeListRef CodeListOID="CL.C71620"/>
            </ItemDef>
            <ItemDef OID="IT.QS.QSSTRESC" Name="QSSTRESC" DataType="text" SASFieldName="QSSTRESC"
                Length="200">
                <Description>
                    <TranslatedText xml:lang="en">Character Result/Finding in Std
                        Format</TranslatedText>
                </Description>
            </ItemDef>
            <ItemDef OID="IT.QS.QSSTRESN" Name="QSSTRESN" DataType="integer" SASFieldName="QSSTRESN"
                Length="1">
                <Description>
                    <TranslatedText xml:lang="en">Numeric Finding in Standard Units</TranslatedText>
                </Description>
            </ItemDef>
            <ItemDef OID="IT.QS.QSSTRESU" Name="QSSTRESU" DataType="text" SASFieldName="QSSTRESU"
                Length="7">
                <Description>
                    <TranslatedText xml:lang="en">Standard Units</TranslatedText>
                </Description>
            </ItemDef>
            <ItemDef OID="IT.QS.QSSTAT" Name="QSSTAT" DataType="text" SASFieldName="QSSTAT"
                Length="200">
                <Description>
                    <TranslatedText xml:lang="en">Completion Status</TranslatedText>
                </Description>
            </ItemDef>
            <ItemDef OID="IT.QS.QSREASND" Name="QSREASND" DataType="text" SASFieldName="QSREASND"
                Length="200">
                <Description>
                    <TranslatedText xml:lang="en">Reason Not Performed</TranslatedText>
                </Description>
            </ItemDef>
            <ItemDef OID="IT.QS.QSDTC" Name="QSDTC" DataType="datetime" SASFieldName="QSDTC">
                <Description>
                    <TranslatedText xml:lang="en">Date/Time of Finding</TranslatedText>
                </Description>
            </ItemDef>
            <ItemDef OID="IT.SC.STUDYID" Name="STUDYID" DataType="text" SASFieldName="STUDYID"
                Length="6">
                <Description>
                    <TranslatedText xml:lang="en">Study Identifier</TranslatedText>
                </Description>
            </ItemDef>
            <ItemDef OID="IT.SC.DOMAIN" Name="DOMAIN" DataType="text" SASFieldName="DOMAIN"
                Length="2">
                <Description>
                    <TranslatedText xml:lang="en">Domain Abbreviation</TranslatedText>
                </Description>
                <CodeListRef CodeListOID="CL.DOMAIN.SC"/>
            </ItemDef>
            <ItemDef OID="IT.SC.USUBJID" Name="USUBJID" DataType="text" SASFieldName="USUBJID"
                Length="20">
                <Description>
                    <TranslatedText xml:lang="en">Unique Subject Identifier</TranslatedText>
                </Description>
            </ItemDef>
            <ItemDef OID="IT.SC.SCSEQ" Name="SCSEQ" DataType="integer" SASFieldName="SCSEQ"
                Length="4">
                <Description>
                    <TranslatedText xml:lang="en">Sequence Number</TranslatedText>
                </Description>
            </ItemDef>
            <ItemDef OID="IT.SC.SCTESTCD" Name="SCTESTCD" DataType="text" SASFieldName="SCTESTCD"
                Length="200">
                <Description>
                    <TranslatedText xml:lang="en">Subject Characteristic Short Name</TranslatedText>
                </Description>
                <CodeListRef CodeListOID="CL.C74559"/>
            </ItemDef>
            <ItemDef OID="IT.SC.SCTEST" Name="SCTEST" DataType="text" SASFieldName="SCTEST"
                Length="200">
                <Description>
                    <TranslatedText xml:lang="en">Subject Characteristic</TranslatedText>
                </Description>
                <CodeListRef CodeListOID="CL.C103330"/>
            </ItemDef>
            <ItemDef OID="IT.SC.SCORRES" Name="SCORRES" DataType="text" SASFieldName="SCORRES"
                Length="200">
                <Description>
                    <TranslatedText xml:lang="en">Result or Finding in Original
                        Units</TranslatedText>
                </Description>
            </ItemDef>
            <ItemDef OID="IT.SC.SCDTC" Name="SCDTC" DataType="datetime" SASFieldName="SCDTC"
                def:CommentOID="COM.ISO8601">
                <Description>
                    <TranslatedText xml:lang="en">Date/Time of Collection</TranslatedText>
                </Description>
            </ItemDef>
            <ItemDef OID="IT.VS.STUDYID" Name="STUDYID" DataType="text" SASFieldName="STUDYID"
                Length="6">
                <Description>
                    <TranslatedText xml:lang="en">Study Identifier</TranslatedText>
                </Description>
            </ItemDef>
            <ItemDef OID="IT.VS.DOMAIN" Name="DOMAIN" DataType="text" SASFieldName="DOMAIN"
                Length="2">
                <Description>
                    <TranslatedText xml:lang="en">Domain Abbreviation</TranslatedText>
                </Description>
                <CodeListRef CodeListOID="CL.DOMAIN.VS"/>
            </ItemDef>
            <ItemDef OID="IT.VS.USUBJID" Name="USUBJID" DataType="text" SASFieldName="USUBJID"
                Length="20">
                <Description>
                    <TranslatedText xml:lang="en">Unique Subject Identifier</TranslatedText>
                </Description>
            </ItemDef>
            <ItemDef OID="IT.VS.VSSEQ" Name="VSSEQ" DataType="integer" SASFieldName="VSSEQ"
                Length="4">
                <Description>
                    <TranslatedText xml:lang="en">Sequence Number</TranslatedText>
                </Description>
            </ItemDef>
            <ItemDef OID="IT.VS.VSGRPID" Name="VSGRPID" DataType="text" SASFieldName="VSGRPID"
                Length="200">
                <Description>
                    <TranslatedText xml:lang="en">Group ID</TranslatedText>
                </Description>
            </ItemDef>
            <ItemDef OID="IT.VS.VSTESTCD" Name="VSTESTCD" DataType="text" SASFieldName="VSTESTCD"
                Length="200">
                <Description>
                    <TranslatedText xml:lang="en">Vital Signs Test Short Name</TranslatedText>
                </Description>
                <CodeListRef CodeListOID="CL.C66741"/>
            </ItemDef>
            <ItemDef OID="IT.VS.VSTEST" Name="VSTEST" DataType="text" SASFieldName="VSTEST"
                Length="200">
                <Description>
                    <TranslatedText xml:lang="en">Vital Signs Test Name</TranslatedText>
                </Description>
                <CodeListRef CodeListOID="CL.C67153"/>
            </ItemDef>
            <ItemDef OID="IT.VS.VSCAT" Name="VSCAT" DataType="text" SASFieldName="VSCAT"
                Length="200">
                <Description>
                    <TranslatedText xml:lang="en">Category for Vital Signs</TranslatedText>
                </Description>
            </ItemDef>
            <ItemDef OID="IT.VS.VSSCAT" Name="VSSCAT" DataType="text" SASFieldName="VSSCAT"
                Length="200">
                <Description>
                    <TranslatedText xml:lang="en">Subcategory for Vital Signs</TranslatedText>
                </Description>
            </ItemDef>
            <ItemDef OID="IT.VS.VSPOS" Name="VSPOS" DataType="text" SASFieldName="VSPOS"
                Length="200">
                <Description>
                    <TranslatedText xml:lang="en">Vital Signs Position of Subject</TranslatedText>
                </Description>
                <CodeListRef CodeListOID="CL.C71148"/>
            </ItemDef>
            <ItemDef OID="IT.VS.VSORRES" Name="VSORRES" DataType="text" SASFieldName="VSORRES"
                Length="200">
                <Description>
                    <TranslatedText xml:lang="en">Result or Finding in Original
                        Units</TranslatedText>
                </Description>
            </ItemDef>
            <ItemDef OID="IT.VS.VSORRESU" Name="VSORRESU" DataType="text" SASFieldName="VSORRESU"
                Length="200">
                <Description>
                    <TranslatedText xml:lang="en">Original Units</TranslatedText>
                </Description>
                <CodeListRef CodeListOID="CL.C66770"/>
            </ItemDef>
            <ItemDef OID="IT.VS.VSSTRESC" Name="VSSTRESC" DataType="text" SASFieldName="VSSTRESC"
                Length="200">
                <Description>
                    <TranslatedText xml:lang="en">Character Result/Finding in Std
                        Format</TranslatedText>
                </Description>
            </ItemDef>
            <ItemDef OID="IT.VS.VSSTRESN" Name="VSSTRESN" DataType="text" SASFieldName="VSSTRESN"
                Length="200">
                <Description>
                    <TranslatedText xml:lang="en">Numeric Result/Finding in Standard
                        Units</TranslatedText>
                </Description>
            </ItemDef>
            <ItemDef OID="IT.VS.VSSTRESU" Name="VSSTRESU" DataType="text" SASFieldName="VSSTRESU"
                Length="200">
                <Description>
                    <TranslatedText xml:lang="en">Standard Units</TranslatedText>
                </Description>
                <CodeListRef CodeListOID="CL.C66770"/>
            </ItemDef>
            <ItemDef OID="IT.VS.VSLOBXFL" Name="VSLOBXFL" DataType="text" SASFieldName="VSLOBXFL"
                Length="200">
                <Description>
                    <TranslatedText xml:lang="en">Last Observation Before Exposure
                        Flag</TranslatedText>
                </Description>
                <CodeListRef CodeListOID="CL.C66742"/>
            </ItemDef>
            <ItemDef OID="IT.VS.VSBLFL" Name="VSBLFL" DataType="text" SASFieldName="VSBLFL"
                Length="200">
                <Description>
                    <TranslatedText xml:lang="en">Baseline Flag</TranslatedText>
                </Description>
                <CodeListRef CodeListOID="CL.C66742"/>
            </ItemDef>
            <ItemDef OID="IT.VS.VSDRVFL" Name="VSDRVFL" DataType="text" SASFieldName="VSDRVFL"
                Length="200">
                <Description>
                    <TranslatedText xml:lang="en">Derived Flag</TranslatedText>
                </Description>
                <CodeListRef CodeListOID="CL.C66742"/>
            </ItemDef>
            <ItemDef OID="IT.VS.VISITNUM" Name="VISITNUM" DataType="integer" SASFieldName="VISITNUM"
                Length="1">
                <Description>
                    <TranslatedText xml:lang="en">Visit Number</TranslatedText>
                </Description>
            </ItemDef>
            <ItemDef OID="IT.VS.VISIT" Name="VISIT" DataType="text" SASFieldName="VISIT"
                Length="200">
                <Description>
                    <TranslatedText xml:lang="en">Visit Name</TranslatedText>
                </Description>
            </ItemDef>
            <ItemDef OID="IT.VS.VISITDY" Name="VISITDY" DataType="integer" SASFieldName="VISITDY"
                Length="4">
                <Description>
                    <TranslatedText xml:lang="en">Planned Study Day of Visit</TranslatedText>
                </Description>
            </ItemDef>
            <ItemDef OID="IT.VS.TAETORD" Name="TAETORD" DataType="integer" SASFieldName="TAETORD"
                Length="4">
                <Description>
                    <TranslatedText xml:lang="en">Planned Order of Element within
                        Arm</TranslatedText>
                </Description>
            </ItemDef>
            <ItemDef OID="IT.VS.EPOCH" Name="EPOCH" DataType="text" SASFieldName="EPOCH"
                Length="200">
                <Description>
                    <TranslatedText xml:lang="en">Epoch</TranslatedText>
                </Description>
                <CodeListRef CodeListOID="CL.C99079"/>
            </ItemDef>
            <ItemDef OID="IT.VS.VSDTC" Name="VSDTC" DataType="datetime" SASFieldName="VSDTC"
                def:CommentOID="COM.ISO8601">
                <Description>
                    <TranslatedText xml:lang="en">Date/Time of Measurements</TranslatedText>
                </Description>
            </ItemDef>
            <ItemDef OID="IT.FA.FAORRES.AGE" Name="FAORRES" DataType="text" SASFieldName="FAORRES"
                Length="17">
                <CodeListRef CodeListOID="CL.FA.FAORRES.AGE"/>
            </ItemDef>
            <ItemDef OID="IT.FA.FAORRES.SICKTODY" Name="FAORRES" DataType="text"
                SASFieldName="FAORRES" Length="22">
                <CodeListRef CodeListOID="CL.FA.FAORRES.SICKTODY"/>
            </ItemDef>
            <ItemDef OID="IT.FA.FAORRES.INSCHFL" Name="FAORRES" DataType="text"
                SASFieldName="FAORRES" Length="21">
                <CodeListRef CodeListOID="CL.FA.FAORRES.INSCHFL"/>
            </ItemDef>
            <ItemDef OID="IT.FA.FAORRES.STRESTDY" Name="FAORRES" DataType="text"
                SASFieldName="FAORRES" Length="22">
                <CodeListRef CodeListOID="CL.FA.FAORRES.STRESTDY"/>
            </ItemDef>
            <ItemDef OID="IT.FA.FAORRES.SLEEPQLT" Name="FAORRES" DataType="text"
                SASFieldName="FAORRES" Length="22">
                <CodeListRef CodeListOID="CL.FA.FAORRES.SLEEPQLT"/>
            </ItemDef>
            <ItemDef OID="IT.FADX.FAOBJ.INSULIN-PUMP-OR-CLOSED-LOOP" Name="FAOBJ" DataType="text"
                SASFieldName="FAOBJ" Length="41">
                <CodeListRef CodeListOID="CL.FADX.FAOBJ.INSULIN-PUMP-OR-CLOSED-LOOP"/>
            </ItemDef>
            <ItemDef OID="IT.FADX.FAOBJ.CGM" Name="FAOBJ" DataType="text" SASFieldName="FAOBJ"
                Length="17">
                <CodeListRef CodeListOID="CL.FADX.FAOBJ.CGM"/>
            </ItemDef>
            <ItemDef OID="IT.FADX.FAOBJ.CGM-Use-Last-Month" Name="FAOBJ" DataType="integer"
                SASFieldName="FAOBJ" Length="3"/>
            <ItemDef OID="IT.SC.SCORRES.EDULEVEL" Name="SCORRES" DataType="text"
                SASFieldName="SCORRES" Length="22">
                <CodeListRef CodeListOID="CL.SC.SCORRES.EDULEVEL"/>
            </ItemDef>
            <ItemDef OID="IT.SC.SCORRES.INCMLVL" Name="SCORRES" DataType="text"
                SASFieldName="SCORRES" Length="21">
                <CodeListRef CodeListOID="CL.SC.SCORRES.INCMLVL"/>
            </ItemDef>
            <CodeList OID="CL.C66770" Name="Units for Vital Signs Results" DataType="text"
                def:StandardOID="STD.3">
                <CodeListItem CodedValue="%" OrderNumber="1">
                    <Decode>
                        <TranslatedText xml:lang="en">Percentage</TranslatedText>
                    </Decode>
                    <Alias Context="nci:ExtCodeID" Name="C25613"/>
                </CodeListItem>
                <CodeListItem CodedValue="beats/min" OrderNumber="2">
                    <Decode>
                        <TranslatedText xml:lang="en">Beats per Minute</TranslatedText>
                    </Decode>
                    <Alias Context="nci:ExtCodeID" Name="C49673"/>
                </CodeListItem>
                <CodeListItem CodedValue="breaths/min" OrderNumber="3">
                    <Decode>
                        <TranslatedText xml:lang="en">Breaths per Minute</TranslatedText>
                    </Decode>
                    <Alias Context="nci:ExtCodeID" Name="C49674"/>
                </CodeListItem>
                <CodeListItem CodedValue="C" OrderNumber="4">
                    <Decode>
                        <TranslatedText xml:lang="en">Degree Celsius</TranslatedText>
                    </Decode>
                    <Alias Context="nci:ExtCodeID" Name="C42559"/>
                </CodeListItem>
                <CodeListItem CodedValue="cm" OrderNumber="5">
                    <Decode>
                        <TranslatedText xml:lang="en">Centimeter</TranslatedText>
                    </Decode>
                    <Alias Context="nci:ExtCodeID" Name="C49668"/>
                </CodeListItem>
                <CodeListItem CodedValue="cmHg" OrderNumber="6">
                    <Decode>
                        <TranslatedText xml:lang="en">Centimeters of Mercury</TranslatedText>
                    </Decode>
                    <Alias Context="nci:ExtCodeID" Name="C147129"/>
                </CodeListItem>
                <CodeListItem CodedValue="F" OrderNumber="7">
                    <Decode>
                        <TranslatedText xml:lang="en">Degree Fahrenheit</TranslatedText>
                    </Decode>
                    <Alias Context="nci:ExtCodeID" Name="C44277"/>
                </CodeListItem>
                <CodeListItem CodedValue="g" OrderNumber="8">
                    <Decode>
                        <TranslatedText xml:lang="en">Gram</TranslatedText>
                    </Decode>
                    <Alias Context="nci:ExtCodeID" Name="C48155"/>
                </CodeListItem>
                <CodeListItem CodedValue="Hz" OrderNumber="9">
                    <Decode>
                        <TranslatedText xml:lang="en">Hertz</TranslatedText>
                    </Decode>
                    <Alias Context="nci:ExtCodeID" Name="C42545"/>
                </CodeListItem>
                <CodeListItem CodedValue="in" OrderNumber="10">
                    <Decode>
                        <TranslatedText xml:lang="en">Inch</TranslatedText>
                    </Decode>
                    <Alias Context="nci:ExtCodeID" Name="C48500"/>
                </CodeListItem>
                <CodeListItem CodedValue="K" OrderNumber="11">
                    <Decode>
                        <TranslatedText xml:lang="en">Kelvin</TranslatedText>
                    </Decode>
                    <Alias Context="nci:ExtCodeID" Name="C42537"/>
                </CodeListItem>
                <CodeListItem CodedValue="kcal/day" OrderNumber="12">
                    <Decode>
                        <TranslatedText xml:lang="en">Kilocalorie per Day</TranslatedText>
                    </Decode>
                    <Alias Context="nci:ExtCodeID" Name="C139135"/>
                </CodeListItem>
                <CodeListItem CodedValue="kg" OrderNumber="13">
                    <Decode>
                        <TranslatedText xml:lang="en">Kilogram</TranslatedText>
                    </Decode>
                    <Alias Context="nci:ExtCodeID" Name="C28252"/>
                </CodeListItem>
                <CodeListItem CodedValue="kg/m2" OrderNumber="14">
                    <Decode>
                        <TranslatedText xml:lang="en">Kilogram per Square Meter</TranslatedText>
                    </Decode>
                    <Alias Context="nci:ExtCodeID" Name="C49671"/>
                </CodeListItem>
                <CodeListItem CodedValue="LB" OrderNumber="15">
                    <Decode>
                        <TranslatedText xml:lang="en">Pound</TranslatedText>
                    </Decode>
                    <Alias Context="nci:ExtCodeID" Name="C48531"/>
                </CodeListItem>
                <CodeListItem CodedValue="m" OrderNumber="16">
                    <Decode>
                        <TranslatedText xml:lang="en">Meter</TranslatedText>
                    </Decode>
                    <Alias Context="nci:ExtCodeID" Name="C41139"/>
                </CodeListItem>
                <CodeListItem CodedValue="m2" OrderNumber="17">
                    <Decode>
                        <TranslatedText xml:lang="en">Square Meter</TranslatedText>
                    </Decode>
                    <Alias Context="nci:ExtCodeID" Name="C42569"/>
                </CodeListItem>
                <CodeListItem CodedValue="MET" OrderNumber="18">
                    <Decode>
                        <TranslatedText xml:lang="en">Metabolic Equivalent of Task
                            Unit</TranslatedText>
                    </Decode>
                    <Alias Context="nci:ExtCodeID" Name="C127805"/>
                </CodeListItem>
                <CodeListItem CodedValue="mm" OrderNumber="19">
                    <Decode>
                        <TranslatedText xml:lang="en">Millimeter</TranslatedText>
                    </Decode>
                    <Alias Context="nci:ExtCodeID" Name="C28251"/>
                </CodeListItem>
                <CodeListItem CodedValue="mmHg" OrderNumber="20">
                    <Decode>
                        <TranslatedText xml:lang="en">Millimeter of Mercury</TranslatedText>
                    </Decode>
                    <Alias Context="nci:ExtCodeID" Name="C49670"/>
                </CodeListItem>
                <CodeListItem CodedValue="Pa" OrderNumber="21">
                    <Decode>
                        <TranslatedText xml:lang="en">Pascal</TranslatedText>
                    </Decode>
                    <Alias Context="nci:ExtCodeID" Name="C42547"/>
                </CodeListItem>
                <CodeListItem CodedValue="RATIO" OrderNumber="22">
                    <Decode>
                        <TranslatedText xml:lang="en">Ratio</TranslatedText>
                    </Decode>
                    <Alias Context="nci:ExtCodeID" Name="C44256"/>
                </CodeListItem>
                <CodeListItem CodedValue="Watt" OrderNumber="23">
                    <Decode>
                        <TranslatedText xml:lang="en">Watt</TranslatedText>
                    </Decode>
                    <Alias Context="nci:ExtCodeID" Name="C42549"/>
                </CodeListItem>
                <Alias Context="nci:ExtCodeID" Name="C66770"/>
            </CodeList>
            <CodeList OID="CL.C71113" Name="Frequency" DataType="text" def:StandardOID="STD.3">
                <CodeListItem CodedValue="1 TIME PER WEEK" OrderNumber="1">
                    <Decode>
                        <TranslatedText xml:lang="en">Once Weekly</TranslatedText>
                    </Decode>
                    <Alias Context="nci:ExtCodeID" Name="C64526"/>
                </CodeListItem>
                <CodeListItem CodedValue="10 DAYS PER MONTH" OrderNumber="2">
                    <Decode>
                        <TranslatedText xml:lang="en">Ten Days Per Month</TranslatedText>
                    </Decode>
                    <Alias Context="nci:ExtCodeID" Name="C139179"/>
                </CodeListItem>
                <CodeListItem CodedValue="2 TIMES PER CYCLE" OrderNumber="3">
                    <Decode>
                        <TranslatedText xml:lang="en">Two Times Per Cycle</TranslatedText>
                    </Decode>
                    <Alias Context="nci:ExtCodeID" Name="C176288"/>
                </CodeListItem>
                <CodeListItem CodedValue="2 TIMES PER WEEK" OrderNumber="4">
                    <Decode>
                        <TranslatedText xml:lang="en">Twice Weekly</TranslatedText>
                    </Decode>
                    <Alias Context="nci:ExtCodeID" Name="C64497"/>
                </CodeListItem>
                <CodeListItem CodedValue="2 TIMES PER YEAR" OrderNumber="5">
                    <Decode>
                        <TranslatedText xml:lang="en">Two Times Yearly</TranslatedText>
                    </Decode>
                    <Alias Context="nci:ExtCodeID" Name="C98861"/>
                </CodeListItem>
                <CodeListItem CodedValue="3 TIMES PER CYCLE" OrderNumber="6">
                    <Decode>
                        <TranslatedText xml:lang="en">Three Times Per Cycle</TranslatedText>
                    </Decode>
                    <Alias Context="nci:ExtCodeID" Name="C176289"/>
                </CodeListItem>
                <CodeListItem CodedValue="3 TIMES PER MONTH" OrderNumber="7">
                    <Decode>
                        <TranslatedText xml:lang="en">Three Times Monthly</TranslatedText>
                    </Decode>
                    <Alias Context="nci:ExtCodeID" Name="C98859"/>
                </CodeListItem>
                <CodeListItem CodedValue="3 TIMES PER WEEK" OrderNumber="8">
                    <Decode>
                        <TranslatedText xml:lang="en">Three Times Weekly</TranslatedText>
                    </Decode>
                    <Alias Context="nci:ExtCodeID" Name="C64528"/>
                </CodeListItem>
                <CodeListItem CodedValue="3 TIMES PER YEAR" OrderNumber="9">
                    <Decode>
                        <TranslatedText xml:lang="en">Three Times Yearly</TranslatedText>
                    </Decode>
                    <Alias Context="nci:ExtCodeID" Name="C98860"/>
                </CodeListItem>
                <CodeListItem CodedValue="4 TIMES PER MONTH" OrderNumber="10">
                    <Decode>
                        <TranslatedText xml:lang="en">Four Times Monthly</TranslatedText>
                    </Decode>
                    <Alias Context="nci:ExtCodeID" Name="C98852"/>
                </CodeListItem>
                <CodeListItem CodedValue="4 TIMES PER WEEK" OrderNumber="11">
                    <Decode>
                        <TranslatedText xml:lang="en">Four Times Weekly</TranslatedText>
                    </Decode>
                    <Alias Context="nci:ExtCodeID" Name="C64531"/>
                </CodeListItem>
                <CodeListItem CodedValue="4 TIMES PER YEAR" OrderNumber="12">
                    <Decode>
                        <TranslatedText xml:lang="en">Four Times Yearly</TranslatedText>
                    </Decode>
                    <Alias Context="nci:ExtCodeID" Name="C98853"/>
                </CodeListItem>
                <CodeListItem CodedValue="5 TIMES PER DAY" OrderNumber="13">
                    <Decode>
                        <TranslatedText xml:lang="en">Five Times Daily</TranslatedText>
                    </Decode>
                    <Alias Context="nci:ExtCodeID" Name="C98849"/>
                </CodeListItem>
                <CodeListItem CodedValue="5 TIMES PER MONTH" OrderNumber="14">
                    <Decode>
                        <TranslatedText xml:lang="en">Five Times Monthly</TranslatedText>
                    </Decode>
                    <Alias Context="nci:ExtCodeID" Name="C98850"/>
                </CodeListItem>
                <CodeListItem CodedValue="5 TIMES PER WEEK" OrderNumber="15">
                    <Decode>
                        <TranslatedText xml:lang="en">Five Times Weekly</TranslatedText>
                    </Decode>
                    <Alias Context="nci:ExtCodeID" Name="C85552"/>
                </CodeListItem>
                <CodeListItem CodedValue="5 TIMES PER YEAR" OrderNumber="16">
                    <Decode>
                        <TranslatedText xml:lang="en">Five Times Yearly</TranslatedText>
                    </Decode>
                    <Alias Context="nci:ExtCodeID" Name="C98851"/>
                </CodeListItem>
                <CodeListItem CodedValue="6 TIMES PER DAY" OrderNumber="17">
                    <Decode>
                        <TranslatedText xml:lang="en">Six Times Daily</TranslatedText>
                    </Decode>
                    <Alias Context="nci:ExtCodeID" Name="C98855"/>
                </CodeListItem>
                <CodeListItem CodedValue="6 TIMES PER MONTH" OrderNumber="18">
                    <Decode>
                        <TranslatedText xml:lang="en">Six Times Monthly</TranslatedText>
                    </Decode>
                    <Alias Context="nci:ExtCodeID" Name="C98856"/>
                </CodeListItem>
                <CodeListItem CodedValue="6 TIMES PER WEEK" OrderNumber="19">
                    <Decode>
                        <TranslatedText xml:lang="en">Six Times Weekly</TranslatedText>
                    </Decode>
                    <Alias Context="nci:ExtCodeID" Name="C98857"/>
                </CodeListItem>
                <CodeListItem CodedValue="6 TIMES PER YEAR" OrderNumber="20">
                    <Decode>
                        <TranslatedText xml:lang="en">Six Times Yearly</TranslatedText>
                    </Decode>
                    <Alias Context="nci:ExtCodeID" Name="C98858"/>
                </CodeListItem>
                <CodeListItem CodedValue="7 TIMES PER DAY" OrderNumber="21">
                    <Decode>
                        <TranslatedText xml:lang="en">Seven Times Per Day</TranslatedText>
                    </Decode>
                    <Alias Context="nci:ExtCodeID" Name="C139180"/>
                </CodeListItem>
                <CodeListItem CodedValue="7 TIMES PER WEEK" OrderNumber="22">
                    <Decode>
                        <TranslatedText xml:lang="en">Seven Times Weekly</TranslatedText>
                    </Decode>
                    <Alias Context="nci:ExtCodeID" Name="C98854"/>
                </CodeListItem>
                <CodeListItem CodedValue="8 TIMES PER DAY" OrderNumber="23">
                    <Decode>
                        <TranslatedText xml:lang="en">Eight Times Per Day</TranslatedText>
                    </Decode>
                    <Alias Context="nci:ExtCodeID" Name="C139181"/>
                </CodeListItem>
                <CodeListItem CodedValue="9 TIMES PER DAY" OrderNumber="24">
                    <Decode>
                        <TranslatedText xml:lang="en">Nine Times Per Day</TranslatedText>
                    </Decode>
                    <Alias Context="nci:ExtCodeID" Name="C139182"/>
                </CodeListItem>
                <CodeListItem CodedValue="AD LIBITUM" OrderNumber="25">
                    <Decode>
                        <TranslatedText xml:lang="en">As Much as Desired</TranslatedText>
                    </Decode>
                    <Alias Context="nci:ExtCodeID" Name="C64636"/>
                </CodeListItem>
                <CodeListItem CodedValue="BID" OrderNumber="26">
                    <Decode>
                        <TranslatedText xml:lang="en">Twice Daily</TranslatedText>
                    </Decode>
                    <Alias Context="nci:ExtCodeID" Name="C64496"/>
                </CodeListItem>
                <CodeListItem CodedValue="BIM" OrderNumber="27">
                    <Decode>
                        <TranslatedText xml:lang="en">Twice Per Month</TranslatedText>
                    </Decode>
                    <Alias Context="nci:ExtCodeID" Name="C71129"/>
                </CodeListItem>
                <CodeListItem CodedValue="CONTINUOUS" OrderNumber="28">
                    <Decode>
                        <TranslatedText xml:lang="en">Continue</TranslatedText>
                    </Decode>
                    <Alias Context="nci:ExtCodeID" Name="C53279"/>
                </CodeListItem>
                <CodeListItem CodedValue="EVERY 12 WEEKS" OrderNumber="29">
                    <Decode>
                        <TranslatedText xml:lang="en">Every Twelve Weeks</TranslatedText>
                    </Decode>
                    <Alias Context="nci:ExtCodeID" Name="C161332"/>
                </CodeListItem>
                <CodeListItem CodedValue="EVERY 16 WEEKS" OrderNumber="30">
                    <Decode>
                        <TranslatedText xml:lang="en">Every Sixteen Weeks</TranslatedText>
                    </Decode>
                    <Alias Context="nci:ExtCodeID" Name="C161336"/>
                </CodeListItem>
                <CodeListItem CodedValue="EVERY 2 WEEKS" OrderNumber="31">
                    <Decode>
                        <TranslatedText xml:lang="en">Every Two Weeks</TranslatedText>
                    </Decode>
                    <Alias Context="nci:ExtCodeID" Name="C71127"/>
                </CodeListItem>
                <CodeListItem CodedValue="EVERY 3 WEEKS" OrderNumber="32">
                    <Decode>
                        <TranslatedText xml:lang="en">Every Three Weeks</TranslatedText>
                    </Decode>
                    <Alias Context="nci:ExtCodeID" Name="C64535"/>
                </CodeListItem>
                <CodeListItem CodedValue="EVERY 3 YEARS" OrderNumber="33">
                    <Decode>
                        <TranslatedText xml:lang="en">Every Three Years</TranslatedText>
                    </Decode>
                    <Alias Context="nci:ExtCodeID" Name="C161333"/>
                </CodeListItem>
                <CodeListItem CodedValue="EVERY 4 WEEKS" OrderNumber="34">
                    <Decode>
                        <TranslatedText xml:lang="en">Every Four Weeks</TranslatedText>
                    </Decode>
                    <Alias Context="nci:ExtCodeID" Name="C64529"/>
                </CodeListItem>
                <CodeListItem CodedValue="EVERY 5 WEEKS" OrderNumber="35">
                    <Decode>
                        <TranslatedText xml:lang="en">Every Five Weeks</TranslatedText>
                    </Decode>
                    <Alias Context="nci:ExtCodeID" Name="C103390"/>
                </CodeListItem>
                <CodeListItem CodedValue="EVERY 5 YEARS" OrderNumber="36">
                    <Decode>
                        <TranslatedText xml:lang="en">Every Five Years</TranslatedText>
                    </Decode>
                    <Alias Context="nci:ExtCodeID" Name="C161334"/>
                </CodeListItem>
                <CodeListItem CodedValue="EVERY 6 WEEKS" OrderNumber="37">
                    <Decode>
                        <TranslatedText xml:lang="en">Every Six Weeks</TranslatedText>
                    </Decode>
                    <Alias Context="nci:ExtCodeID" Name="C89788"/>
                </CodeListItem>
                <CodeListItem CodedValue="EVERY 7 WEEKS" OrderNumber="38">
                    <Decode>
                        <TranslatedText xml:lang="en">Every Seven Weeks</TranslatedText>
                    </Decode>
                    <Alias Context="nci:ExtCodeID" Name="C116149"/>
                </CodeListItem>
                <CodeListItem CodedValue="EVERY 8 WEEKS" OrderNumber="39">
                    <Decode>
                        <TranslatedText xml:lang="en">Every Eight Weeks</TranslatedText>
                    </Decode>
                    <Alias Context="nci:ExtCodeID" Name="C103389"/>
                </CodeListItem>
                <CodeListItem CodedValue="EVERY AFTERNOON" OrderNumber="40">
                    <Decode>
                        <TranslatedText xml:lang="en">Every Afternoon</TranslatedText>
                    </Decode>
                    <Alias Context="nci:ExtCodeID" Name="C154484"/>
                </CodeListItem>
                <CodeListItem CodedValue="EVERY EVENING" OrderNumber="41">
                    <Decode>
                        <TranslatedText xml:lang="en">Every Evening</TranslatedText>
                    </Decode>
                    <Alias Context="nci:ExtCodeID" Name="C160957"/>
                </CodeListItem>
                <CodeListItem CodedValue="EVERY WEEK" OrderNumber="42">
                    <Decode>
                        <TranslatedText xml:lang="en">Weekly</TranslatedText>
                    </Decode>
                    <Alias Context="nci:ExtCodeID" Name="C67069"/>
                </CodeListItem>
                <CodeListItem CodedValue="INTERMITTENT" OrderNumber="43">
                    <Decode>
                        <TranslatedText xml:lang="en">Intermittent</TranslatedText>
                    </Decode>
                    <Alias Context="nci:ExtCodeID" Name="C71325"/>
                </CodeListItem>
                <CodeListItem CodedValue="OCCASIONAL" OrderNumber="44">
                    <Decode>
                        <TranslatedText xml:lang="en">Infrequent</TranslatedText>
                    </Decode>
                    <Alias Context="nci:ExtCodeID" Name="C64954"/>
                </CodeListItem>
                <CodeListItem CodedValue="ONCE" OrderNumber="45">
                    <Decode>
                        <TranslatedText xml:lang="en">Once</TranslatedText>
                    </Decode>
                    <Alias Context="nci:ExtCodeID" Name="C64576"/>
                </CodeListItem>
                <CodeListItem CodedValue="PA" OrderNumber="46">
                    <Decode>
                        <TranslatedText xml:lang="en">Per Year</TranslatedText>
                    </Decode>
                    <Alias Context="nci:ExtCodeID" Name="C74924"/>
                </CodeListItem>
                <CodeListItem CodedValue="PRN" OrderNumber="47">
                    <Decode>
                        <TranslatedText xml:lang="en">As Needed</TranslatedText>
                    </Decode>
                    <Alias Context="nci:ExtCodeID" Name="C64499"/>
                </CodeListItem>
                <CodeListItem CodedValue="Q10H" OrderNumber="48">
                    <Decode>
                        <TranslatedText xml:lang="en">Every Ten Hours</TranslatedText>
                    </Decode>
                    <Alias Context="nci:ExtCodeID" Name="C64500"/>
                </CodeListItem>
                <CodeListItem CodedValue="Q11H" OrderNumber="49">
                    <Decode>
                        <TranslatedText xml:lang="en">Every Eleven Hours</TranslatedText>
                    </Decode>
                    <Alias Context="nci:ExtCodeID" Name="C64501"/>
                </CodeListItem>
                <CodeListItem CodedValue="Q12H" OrderNumber="50">
                    <Decode>
                        <TranslatedText xml:lang="en">Every Twelve Hours</TranslatedText>
                    </Decode>
                    <Alias Context="nci:ExtCodeID" Name="C64502"/>
                </CodeListItem>
                <CodeListItem CodedValue="Q13H" OrderNumber="51">
                    <Decode>
                        <TranslatedText xml:lang="en">Every Thirteen Hours</TranslatedText>
                    </Decode>
                    <Alias Context="nci:ExtCodeID" Name="C64503"/>
                </CodeListItem>
                <CodeListItem CodedValue="Q14H" OrderNumber="52">
                    <Decode>
                        <TranslatedText xml:lang="en">Every Fourteen Hours</TranslatedText>
                    </Decode>
                    <Alias Context="nci:ExtCodeID" Name="C64504"/>
                </CodeListItem>
                <CodeListItem CodedValue="Q15H" OrderNumber="53">
                    <Decode>
                        <TranslatedText xml:lang="en">Every Fifteen Hours</TranslatedText>
                    </Decode>
                    <Alias Context="nci:ExtCodeID" Name="C64505"/>
                </CodeListItem>
                <CodeListItem CodedValue="Q16H" OrderNumber="54">
                    <Decode>
                        <TranslatedText xml:lang="en">Every Sixteen Hours</TranslatedText>
                    </Decode>
                    <Alias Context="nci:ExtCodeID" Name="C64506"/>
                </CodeListItem>
                <CodeListItem CodedValue="Q17H" OrderNumber="55">
                    <Decode>
                        <TranslatedText xml:lang="en">Every Seventeen Hours</TranslatedText>
                    </Decode>
                    <Alias Context="nci:ExtCodeID" Name="C64507"/>
                </CodeListItem>
                <CodeListItem CodedValue="Q18H" OrderNumber="56">
                    <Decode>
                        <TranslatedText xml:lang="en">Every Eighteen Hours</TranslatedText>
                    </Decode>
                    <Alias Context="nci:ExtCodeID" Name="C64508"/>
                </CodeListItem>
                <CodeListItem CodedValue="Q19H" OrderNumber="57">
                    <Decode>
                        <TranslatedText xml:lang="en">Every Nineteen Hours</TranslatedText>
                    </Decode>
                    <Alias Context="nci:ExtCodeID" Name="C64509"/>
                </CodeListItem>
                <CodeListItem CodedValue="Q20H" OrderNumber="58">
                    <Decode>
                        <TranslatedText xml:lang="en">Every Twenty Hours</TranslatedText>
                    </Decode>
                    <Alias Context="nci:ExtCodeID" Name="C64511"/>
                </CodeListItem>
                <CodeListItem CodedValue="Q21H" OrderNumber="59">
                    <Decode>
                        <TranslatedText xml:lang="en">Every Twenty-One Hours</TranslatedText>
                    </Decode>
                    <Alias Context="nci:ExtCodeID" Name="C64512"/>
                </CodeListItem>
                <CodeListItem CodedValue="Q22H" OrderNumber="60">
                    <Decode>
                        <TranslatedText xml:lang="en">Every Twenty-Two Hours</TranslatedText>
                    </Decode>
                    <Alias Context="nci:ExtCodeID" Name="C64513"/>
                </CodeListItem>
                <CodeListItem CodedValue="Q23H" OrderNumber="61">
                    <Decode>
                        <TranslatedText xml:lang="en">Every Twenty-Three Hours</TranslatedText>
                    </Decode>
                    <Alias Context="nci:ExtCodeID" Name="C64514"/>
                </CodeListItem>
                <CodeListItem CodedValue="Q24H" OrderNumber="62">
                    <Decode>
                        <TranslatedText xml:lang="en">Every Twenty-Four Hours</TranslatedText>
                    </Decode>
                    <Alias Context="nci:ExtCodeID" Name="C64515"/>
                </CodeListItem>
                <CodeListItem CodedValue="Q2H" OrderNumber="63">
                    <Decode>
                        <TranslatedText xml:lang="en">Every Two Hours</TranslatedText>
                    </Decode>
                    <Alias Context="nci:ExtCodeID" Name="C64516"/>
                </CodeListItem>
                <CodeListItem CodedValue="Q2M" OrderNumber="64">
                    <Decode>
                        <TranslatedText xml:lang="en">Every Two Months</TranslatedText>
                    </Decode>
                    <Alias Context="nci:ExtCodeID" Name="C64536"/>
                </CodeListItem>
                <CodeListItem CodedValue="Q36H" OrderNumber="65">
                    <Decode>
                        <TranslatedText xml:lang="en">Every Thirty-six Hours</TranslatedText>
                    </Decode>
                    <Alias Context="nci:ExtCodeID" Name="C89791"/>
                </CodeListItem>
                <CodeListItem CodedValue="Q3D" OrderNumber="66">
                    <Decode>
                        <TranslatedText xml:lang="en">Every Three Days</TranslatedText>
                    </Decode>
                    <Alias Context="nci:ExtCodeID" Name="C64533"/>
                </CodeListItem>
                <CodeListItem CodedValue="Q3H" OrderNumber="67">
                    <Decode>
                        <TranslatedText xml:lang="en">Every Three Hours</TranslatedText>
                    </Decode>
                    <Alias Context="nci:ExtCodeID" Name="C64517"/>
                </CodeListItem>
                <CodeListItem CodedValue="Q3M" OrderNumber="68">
                    <Decode>
                        <TranslatedText xml:lang="en">Every Three Months</TranslatedText>
                    </Decode>
                    <Alias Context="nci:ExtCodeID" Name="C64537"/>
                </CodeListItem>
                <CodeListItem CodedValue="Q45MIN" OrderNumber="69">
                    <Decode>
                        <TranslatedText xml:lang="en">Every Forty-Five Minutes</TranslatedText>
                    </Decode>
                    <Alias Context="nci:ExtCodeID" Name="C139183"/>
                </CodeListItem>
                <CodeListItem CodedValue="Q48H" OrderNumber="70">
                    <Decode>
                        <TranslatedText xml:lang="en">Every Forty-eight Hours</TranslatedText>
                    </Decode>
                    <Alias Context="nci:ExtCodeID" Name="C89790"/>
                </CodeListItem>
                <CodeListItem CodedValue="Q4D" OrderNumber="71">
                    <Decode>
                        <TranslatedText xml:lang="en">Every Four Days</TranslatedText>
                    </Decode>
                    <Alias Context="nci:ExtCodeID" Name="C64534"/>
                </CodeListItem>
                <CodeListItem CodedValue="Q4H" OrderNumber="72">
                    <Decode>
                        <TranslatedText xml:lang="en">Every Four Hours</TranslatedText>
                    </Decode>
                    <Alias Context="nci:ExtCodeID" Name="C64518"/>
                </CodeListItem>
                <CodeListItem CodedValue="Q4M" OrderNumber="73">
                    <Decode>
                        <TranslatedText xml:lang="en">Every Four Months</TranslatedText>
                    </Decode>
                    <Alias Context="nci:ExtCodeID" Name="C64538"/>
                </CodeListItem>
                <CodeListItem CodedValue="Q5D" OrderNumber="74">
                    <Decode>
                        <TranslatedText xml:lang="en">Every Five Days</TranslatedText>
                    </Decode>
                    <Alias Context="nci:ExtCodeID" Name="C71124"/>
                </CodeListItem>
                <CodeListItem CodedValue="Q5H" OrderNumber="75">
                    <Decode>
                        <TranslatedText xml:lang="en">Every Five Hours</TranslatedText>
                    </Decode>
                    <Alias Context="nci:ExtCodeID" Name="C64519"/>
                </CodeListItem>
                <CodeListItem CodedValue="Q6D" OrderNumber="76">
                    <Decode>
                        <TranslatedText xml:lang="en">Every Six Days</TranslatedText>
                    </Decode>
                    <Alias Context="nci:ExtCodeID" Name="C161335"/>
                </CodeListItem>
                <CodeListItem CodedValue="Q6H" OrderNumber="77">
                    <Decode>
                        <TranslatedText xml:lang="en">Every Six Hours</TranslatedText>
                    </Decode>
                    <Alias Context="nci:ExtCodeID" Name="C64520"/>
                </CodeListItem>
                <CodeListItem CodedValue="Q6M" OrderNumber="78">
                    <Decode>
                        <TranslatedText xml:lang="en">Every Six Months</TranslatedText>
                    </Decode>
                    <Alias Context="nci:ExtCodeID" Name="C89789"/>
                </CodeListItem>
                <CodeListItem CodedValue="Q72H" OrderNumber="79">
                    <Decode>
                        <TranslatedText xml:lang="en">Every Seventy Two Hours</TranslatedText>
                    </Decode>
                    <Alias Context="nci:ExtCodeID" Name="C174288"/>
                </CodeListItem>
                <CodeListItem CodedValue="Q7D" OrderNumber="80">
                    <Decode>
                        <TranslatedText xml:lang="en">Every Seven Days</TranslatedText>
                    </Decode>
                    <Alias Context="nci:ExtCodeID" Name="C139177"/>
                </CodeListItem>
                <CodeListItem CodedValue="Q7H" OrderNumber="81">
                    <Decode>
                        <TranslatedText xml:lang="en">Every Seven Hours</TranslatedText>
                    </Decode>
                    <Alias Context="nci:ExtCodeID" Name="C64521"/>
                </CodeListItem>
                <CodeListItem CodedValue="Q8H" OrderNumber="82">
                    <Decode>
                        <TranslatedText xml:lang="en">Every Eight Hours</TranslatedText>
                    </Decode>
                    <Alias Context="nci:ExtCodeID" Name="C64523"/>
                </CodeListItem>
                <CodeListItem CodedValue="Q9H" OrderNumber="83">
                    <Decode>
                        <TranslatedText xml:lang="en">Every Nine Hours</TranslatedText>
                    </Decode>
                    <Alias Context="nci:ExtCodeID" Name="C64524"/>
                </CodeListItem>
                <CodeListItem CodedValue="QAM" OrderNumber="84">
                    <Decode>
                        <TranslatedText xml:lang="en">Every Morning</TranslatedText>
                    </Decode>
                    <Alias Context="nci:ExtCodeID" Name="C64595"/>
                </CodeListItem>
                <CodeListItem CodedValue="QD" OrderNumber="85">
                    <Decode>
                        <TranslatedText xml:lang="en">Daily</TranslatedText>
                    </Decode>
                    <Alias Context="nci:ExtCodeID" Name="C25473"/>
                </CodeListItem>
                <CodeListItem CodedValue="QH" OrderNumber="86">
                    <Decode>
                        <TranslatedText xml:lang="en">Every Hour</TranslatedText>
                    </Decode>
                    <Alias Context="nci:ExtCodeID" Name="C64510"/>
                </CodeListItem>
                <CodeListItem CodedValue="QHS" OrderNumber="87">
                    <Decode>
                        <TranslatedText xml:lang="en">Hour Of Sleep</TranslatedText>
                    </Decode>
                    <Alias Context="nci:ExtCodeID" Name="C64593"/>
                </CodeListItem>
                <CodeListItem CodedValue="QID" OrderNumber="88">
                    <Decode>
                        <TranslatedText xml:lang="en">Four Times Daily</TranslatedText>
                    </Decode>
                    <Alias Context="nci:ExtCodeID" Name="C64530"/>
                </CodeListItem>
                <CodeListItem CodedValue="QM" OrderNumber="89">
                    <Decode>
                        <TranslatedText xml:lang="en">Monthly</TranslatedText>
                    </Decode>
                    <Alias Context="nci:ExtCodeID" Name="C64498"/>
                </CodeListItem>
                <CodeListItem CodedValue="QN" OrderNumber="90">
                    <Decode>
                        <TranslatedText xml:lang="en">Every Night</TranslatedText>
                    </Decode>
                    <Alias Context="nci:ExtCodeID" Name="C139178"/>
                </CodeListItem>
                <CodeListItem CodedValue="QOD" OrderNumber="91">
                    <Decode>
                        <TranslatedText xml:lang="en">Every Other Day</TranslatedText>
                    </Decode>
                    <Alias Context="nci:ExtCodeID" Name="C64525"/>
                </CodeListItem>
                <CodeListItem CodedValue="QPM" OrderNumber="92">
                    <Decode>
                        <TranslatedText xml:lang="en">QPM</TranslatedText>
                    </Decode>
                    <Alias Context="nci:ExtCodeID" Name="C64596"/>
                </CodeListItem>
                <CodeListItem CodedValue="THRICE" OrderNumber="93">
                    <Decode>
                        <TranslatedText xml:lang="en">Thrice</TranslatedText>
                    </Decode>
                    <Alias Context="nci:ExtCodeID" Name="C156502"/>
                </CodeListItem>
                <CodeListItem CodedValue="TID" OrderNumber="94">
                    <Decode>
                        <TranslatedText xml:lang="en">Three Times Daily</TranslatedText>
                    </Decode>
                    <Alias Context="nci:ExtCodeID" Name="C64527"/>
                </CodeListItem>
                <CodeListItem CodedValue="TWICE" OrderNumber="95">
                    <Decode>
                        <TranslatedText xml:lang="en">Twice</TranslatedText>
                    </Decode>
                    <Alias Context="nci:ExtCodeID" Name="C65134"/>
                </CodeListItem>
                <CodeListItem CodedValue="UNKNOWN" OrderNumber="96">
                    <Decode>
                        <TranslatedText xml:lang="en">Unknown</TranslatedText>
                    </Decode>
                    <Alias Context="nci:ExtCodeID" Name="C17998"/>
                </CodeListItem>
                <Alias Context="nci:ExtCodeID" Name="C71113"/>
            </CodeList>
            <CodeList OID="CL.C66789" Name="Not Done" DataType="text" def:StandardOID="STD.3">
                <CodeListItem CodedValue="NOT DONE" OrderNumber="1">
                    <Decode>
                        <TranslatedText xml:lang="en">Not Done</TranslatedText>
                    </Decode>
                    <Alias Context="nci:ExtCodeID" Name="C49484"/>
                </CodeListItem>
                <Alias Context="nci:ExtCodeID" Name="C66789"/>
            </CodeList>
            <CodeList OID="CL.C74457" Name="Race" DataType="text" def:StandardOID="STD.3">
                <CodeListItem CodedValue="AMERICAN INDIAN OR ALASKA NATIVE" OrderNumber="1">
                    <Decode>
                        <TranslatedText xml:lang="en">American Indian or Alaska
                            Native</TranslatedText>
                    </Decode>
                    <Alias Context="nci:ExtCodeID" Name="C41259"/>
                </CodeListItem>
                <CodeListItem CodedValue="ASIAN" OrderNumber="2">
                    <Decode>
                        <TranslatedText xml:lang="en">Asian</TranslatedText>
                    </Decode>
                    <Alias Context="nci:ExtCodeID" Name="C41260"/>
                </CodeListItem>
                <CodeListItem CodedValue="BLACK OR AFRICAN AMERICAN" OrderNumber="3">
                    <Decode>
                        <TranslatedText xml:lang="en">Black or African American</TranslatedText>
                    </Decode>
                    <Alias Context="nci:ExtCodeID" Name="C16352"/>
                </CodeListItem>
                <CodeListItem CodedValue="NATIVE HAWAIIAN OR OTHER PACIFIC ISLANDER" OrderNumber="4">
                    <Decode>
                        <TranslatedText xml:lang="en">Native Hawaiian or Other Pacific
                            Islander</TranslatedText>
                    </Decode>
                    <Alias Context="nci:ExtCodeID" Name="C41219"/>
                </CodeListItem>
                <CodeListItem CodedValue="NOT REPORTED" OrderNumber="5">
                    <Decode>
                        <TranslatedText xml:lang="en">Not Reported</TranslatedText>
                    </Decode>
                    <Alias Context="nci:ExtCodeID" Name="C43234"/>
                </CodeListItem>
                <CodeListItem CodedValue="UNKNOWN" OrderNumber="6">
                    <Decode>
                        <TranslatedText xml:lang="en">Unknown</TranslatedText>
                    </Decode>
                    <Alias Context="nci:ExtCodeID" Name="C17998"/>
                </CodeListItem>
                <CodeListItem CodedValue="WHITE" OrderNumber="7">
                    <Decode>
                        <TranslatedText xml:lang="en">White</TranslatedText>
                    </Decode>
                    <Alias Context="nci:ExtCodeID" Name="C41261"/>
                </CodeListItem>
                <Alias Context="nci:ExtCodeID" Name="C74457"/>
            </CodeList>
            <CodeList OID="CL.C78733" Name="Specimen Condition" DataType="text"
                def:StandardOID="STD.3">
                <CodeListItem CodedValue="AGGLUTINATED" OrderNumber="1">
                    <Decode>
                        <TranslatedText xml:lang="en">Agglutinated Specimen</TranslatedText>
                    </Decode>
                    <Alias Context="nci:ExtCodeID" Name="C166094"/>
                </CodeListItem>
                <CodeListItem CodedValue="AUTOLYZED" OrderNumber="2">
                    <Decode>
                        <TranslatedText xml:lang="en">Autolyzed Specimen</TranslatedText>
                    </Decode>
                    <Alias Context="nci:ExtCodeID" Name="C78725"/>
                </CodeListItem>
                <CodeListItem CodedValue="CALCIFIED" OrderNumber="3">
                    <Decode>
                        <TranslatedText xml:lang="en">Calcified Specimen</TranslatedText>
                    </Decode>
                    <Alias Context="nci:ExtCodeID" Name="C78723"/>
                </CodeListItem>
                <CodeListItem CodedValue="CAUTERIZED" OrderNumber="4">
                    <Decode>
                        <TranslatedText xml:lang="en">Cauterized Specimen</TranslatedText>
                    </Decode>
                    <Alias Context="nci:ExtCodeID" Name="C184709"/>
                </CodeListItem>
                <CodeListItem CodedValue="CLOTTED" OrderNumber="5">
                    <Decode>
                        <TranslatedText xml:lang="en">Clotted Specimen</TranslatedText>
                    </Decode>
                    <Alias Context="nci:ExtCodeID" Name="C78724"/>
                </CodeListItem>
                <CodeListItem CodedValue="CONCENTRATED" OrderNumber="6">
                    <Decode>
                        <TranslatedText xml:lang="en">Concentrated Specimen</TranslatedText>
                    </Decode>
                    <Alias Context="nci:ExtCodeID" Name="C128999"/>
                </CodeListItem>
                <CodeListItem CodedValue="CONTAMINATED" OrderNumber="7">
                    <Decode>
                        <TranslatedText xml:lang="en">Contamination</TranslatedText>
                    </Decode>
                    <Alias Context="nci:ExtCodeID" Name="C68768"/>
                </CodeListItem>
                <CodeListItem CodedValue="DRIED" OrderNumber="8">
                    <Decode>
                        <TranslatedText xml:lang="en">Dried Specimen</TranslatedText>
                    </Decode>
                    <Alias Context="nci:ExtCodeID" Name="C84516"/>
                </CodeListItem>
                <CodeListItem CodedValue="FRESH" OrderNumber="9">
                    <Decode>
