<?xml version='1.0' encoding='utf-8'?>
<ODM FileOID="ODM.DEFINE21.TEST.001" AsOfDateTime="2022-07-28T00:38:43.853777+00:00"
    CreationDateTime="2022-07-28T00:38:43.853802+00:00" ODMVersion="1.3.2" FileType="Snapshot"
    Originator="Sam Hume" SourceSystem="odmlib" SourceSystemVersion="0.2" def:Context="Other"
    xmlns="http://www.cdisc.org/ns/odm/v1.3" xmlns:xs="http://www.w3.org/2001/XMLSchema-instance"
    xmlns:xlink="http://www.w3.org/1999/xlink" xmlns:def="http://www.cdisc.org/ns/def/v2.1">
    <Study OID="ODM.T1DEXI">
        <GlobalVariables>
            <StudyName>T1DEXI</StudyName>
            <StudyDescription>The T1DEXI study was designed to create an aggregated dataset
                including exercise, CGM and other relevant data inputs related to glucose response
                to exercise for those living with type 1 diabetes.</StudyDescription>
            <ProtocolName>Type 1 Diabetes EXercise Initiative: The Effect of Exercise on Glycemic
                Control in Type 1 Diabetes Study</ProtocolName>
        </GlobalVariables>
        <MetaDataVersion OID="MDV.T1DEXI" Name="MDV T1DEXI"
            Description="Data Definitions for T1DEXI" def:DefineVersion="2.1.0">
            <def:Standards>
                <def:Standard OID="STD.1" Name="SDTMIG" Type="IG" Version="3.3" Status="Final"/>
                <def:Standard OID="STD.2" Name="SDTMIG-MD" Type="IG" Version="1.1" Status="Final"/>
                <def:Standard OID="STD.3" Name="CDISC/NCI" Type="CT" Version="2021-12-17"
                    Status="Final" PublishingSet="SDTM"/>
            </def:Standards>
            <def:AnnotatedCRF>
                <def:DocumentRef leafID="LF.acrf"/>
            </def:AnnotatedCRF>
            <def:SupplementalDoc>
                <def:DocumentRef leafID="LF.ReviewersGuide"/>
            </def:SupplementalDoc>
            <def:ValueListDef OID="VL.FA.FAORRES">
                <ItemRef ItemOID="IT.FA.FAORRES.AGE" Mandatory="No" OrderNumber="1">
                    <def:WhereClauseRef WhereClauseOID="WC.FA.FAORRES.AGE"/>
                </ItemRef>
                <ItemRef ItemOID="IT.FA.FAORRES.SICKTODY" Mandatory="No" OrderNumber="2">
                    <def:WhereClauseRef WhereClauseOID="WC.FA.FAORRES.SICKTODY"/>
                </ItemRef>
                <ItemRef ItemOID="IT.FA.FAORRES.INSCHFL" Mandatory="No" OrderNumber="3">
                    <def:WhereClauseRef WhereClauseOID="WC.FA.FAORRES.INSCHFL"/>
                </ItemRef>
                <ItemRef ItemOID="IT.FA.FAORRES.STRESTDY" Mandatory="No" OrderNumber="4">
                    <def:WhereClauseRef WhereClauseOID="WC.FA.FAORRES.STRESTDY"/>
                </ItemRef>
                <ItemRef ItemOID="IT.FA.FAORRES.SLEEPQLT" Mandatory="No" OrderNumber="5">
                    <def:WhereClauseRef WhereClauseOID="WC.FA.FAORRES.SLEEPQLT"/>
                </ItemRef>
            </def:ValueListDef>
            <def:ValueListDef OID="VL.FADX.FAORRES">
                <ItemRef ItemOID="IT.FADX.FAORRES.INSULIN-PUMP-OR-CLOSED-LOOP" Mandatory="No"
                    OrderNumber="1">
                    <def:WhereClauseRef WhereClauseOID="WC.FADX.FAORRES.INSULIN-PUMP-OR-CLOSED-LOOP"
                    />
                </ItemRef>
                <ItemRef ItemOID="IT.FADX.FAORRES.CGM" Mandatory="No" OrderNumber="2">
                    <def:WhereClauseRef WhereClauseOID="WC.FADX.FAORRES.CGM"/>
                </ItemRef>
                <ItemRef ItemOID="IT.FADX.FAORRES.CGM-USE-LAST-MONTH" Mandatory="No" OrderNumber="3">
                    <def:WhereClauseRef WhereClauseOID="WC.FADX.FAORRES.CGM-USE-LAST-MONTH"/>
                </ItemRef>
            </def:ValueListDef>
            <def:ValueListDef OID="VL.SC.SCORRES">
                <ItemRef ItemOID="IT.SC.SCORRES.EDULEVEL" Mandatory="No" OrderNumber="1">
                    <def:WhereClauseRef WhereClauseOID="WC.SC.SCORRES.EDULEVEL"/>
                </ItemRef>
                <ItemRef ItemOID="IT.SC.SCORRES.INCMLVL" Mandatory="No" OrderNumber="2">
                    <def:WhereClauseRef WhereClauseOID="WC.SC.SCORRES.INCMLVL"/>
                </ItemRef>
            </def:ValueListDef>
            <def:ValueListDef OID="VL.LB.LBORRES">
                <ItemRef ItemOID="IT.LB.LBORRES.HBA1C" Mandatory="No" OrderNumber="1">
                    <def:WhereClauseRef WhereClauseOID="WC.LB.LBORRES.HBA1C"/>
                </ItemRef>
                <ItemRef ItemOID="IT.LB.LBORRES.GLUC" Mandatory="No" OrderNumber="2">
                    <def:WhereClauseRef WhereClauseOID="WC.LB.LBORRES.GLUC"/>
                </ItemRef>
            </def:ValueListDef>
            <def:ValueListDef OID="VL.QS.TESTCD">
                <ItemRef ItemOID="IT.QS.TESTCD.IPAQ-SHORT-SELF-ADMINISTERED-VERSION" Mandatory="No"
                    OrderNumber="1">
                    <def:WhereClauseRef
                        WhereClauseOID="WC.QS.TESTCD.IPAQ-SHORT-SELF-ADMINISTERED-VERSION"/>
                </ItemRef>
                <ItemRef
                    ItemOID="IT.QS.TESTCD.CLARK-HYPOGLYCEMIA-UNAWARENESS-SURVEY-SELF-ADMINISTERED"
                    Mandatory="No" OrderNumber="2">
                    <def:WhereClauseRef
                        WhereClauseOID="WC.QS.TESTCD.CLARK-HYPOGLYCEMIA-UNAWARENESS-SURVEY-SELF-ADMINISTERED"
                    />
                </ItemRef>
                <ItemRef ItemOID="IT.QS.TESTCD.PITTSBURG-SLEEP-QUALITY-INDEX" Mandatory="No"
                    OrderNumber="3">
                    <def:WhereClauseRef WhereClauseOID="WC.QS.TESTCD.PITTSBURG-SLEEP-QUALITY-INDEX"
                    />
                </ItemRef>
            </def:ValueListDef>
            <def:ValueListDef OID="VL.QS.TEST">
                <ItemRef ItemOID="IT.QS.TEST.IPAQ-SHORT-SELF-ADMINISTERED-VERSION" Mandatory="No"
                    OrderNumber="1">
                    <def:WhereClauseRef
                        WhereClauseOID="WC.QS.TEST.IPAQ-SHORT-SELF-ADMINISTERED-VERSION"/>
                </ItemRef>
                <ItemRef
                    ItemOID="IT.QS.TEST.CLARK-HYPOGLYCEMIA-UNAWARENESS-SURVEY-SELF-ADMINISTERED"
                    Mandatory="No" OrderNumber="2">
                    <def:WhereClauseRef
                        WhereClauseOID="WC.QS.TEST.CLARK-HYPOGLYCEMIA-UNAWARENESS-SURVEY-SELF-ADMINISTERED"
                    />
                </ItemRef>
                <ItemRef ItemOID="IT.QS.TEST.PITTSBURG-SLEEP-QUALITY-INDEX" Mandatory="No"
                    OrderNumber="3">
                    <def:WhereClauseRef WhereClauseOID="WC.QS.TEST.PITTSBURG-SLEEP-QUALITY-INDEX"/>
                </ItemRef>
            </def:ValueListDef>
            <def:WhereClauseDef OID="WC.FA.FAORRES.AGE">
                <RangeCheck SoftHard="Soft" def:ItemOID="IT.FA.FATESTCD" Comparator="EQ">
                    <CheckValue>AGE</CheckValue>
                </RangeCheck>
            </def:WhereClauseDef>
            <def:WhereClauseDef OID="WC.FA.FAORRES.SICKTODY">
                <RangeCheck SoftHard="Soft" def:ItemOID="IT.FA.FATESTCD" Comparator="EQ">
                    <CheckValue>SICKTODY</CheckValue>
                </RangeCheck>
            </def:WhereClauseDef>
            <def:WhereClauseDef OID="WC.FA.FAORRES.INSCHFL">
                <RangeCheck SoftHard="Soft" def:ItemOID="IT.FA.FATESTCD" Comparator="EQ">
                    <CheckValue>INSCHFL</CheckValue>
                </RangeCheck>
            </def:WhereClauseDef>
            <def:WhereClauseDef OID="WC.FA.FAORRES.STRESTDY">
                <RangeCheck SoftHard="Soft" def:ItemOID="IT.FA.FATESTCD" Comparator="EQ">
                    <CheckValue>STRESTDY</CheckValue>
                </RangeCheck>
            </def:WhereClauseDef>
            <def:WhereClauseDef OID="WC.FA.FAORRES.SLEEPQLT">
                <RangeCheck SoftHard="Soft" def:ItemOID="IT.FA.FATESTCD" Comparator="EQ">
                    <CheckValue>SLEEPQLT</CheckValue>
                </RangeCheck>
            </def:WhereClauseDef>
            <def:WhereClauseDef OID="WC.FADX.FAORRES.INSULIN-PUMP-OR-CLOSED-LOOP">
                <RangeCheck SoftHard="Soft" def:ItemOID="IT.FADX.FAOBJ" Comparator="EQ">
                    <CheckValue>INSULIN PUMP OR CLOSED LOOP</CheckValue>
                </RangeCheck>
            </def:WhereClauseDef>
            <def:WhereClauseDef OID="WC.FADX.FAORRES.CGM">
                <RangeCheck SoftHard="Soft" def:ItemOID="IT.FADX.FAOBJ" Comparator="EQ">
                    <CheckValue>CGM</CheckValue>
                </RangeCheck>
            </def:WhereClauseDef>
            <def:WhereClauseDef OID="WC.FADX.FAORRES.CGM-USE-LAST-MONTH">
                <RangeCheck SoftHard="Soft" def:ItemOID="IT.FADX.FAOBJ" Comparator="EQ">
                    <CheckValue>CGM USE LAST MONTH</CheckValue>
                </RangeCheck>
            </def:WhereClauseDef>
            <def:WhereClauseDef OID="WC.SC.SCORRES.EDULEVEL">
                <RangeCheck SoftHard="Soft" def:ItemOID="IT.SC.SCTESTCD" Comparator="EQ">
                    <CheckValue>EDULEVEL</CheckValue>
                </RangeCheck>
            </def:WhereClauseDef>
            <def:WhereClauseDef OID="WC.SC.SCORRES.INCMLVL">
                <RangeCheck SoftHard="Soft" def:ItemOID="IT.SC.SCTESTCD" Comparator="EQ">
                    <CheckValue>INCMLVL</CheckValue>
                </RangeCheck>
            </def:WhereClauseDef>
            <def:WhereClauseDef OID="WC.LB.LBORRES.HBA1C">
                <RangeCheck SoftHard="Soft" def:ItemOID="IT.LB.LBTESTCD" Comparator="EQ">
                    <CheckValue>HBA1C</CheckValue>
                </RangeCheck>
            </def:WhereClauseDef>
            <def:WhereClauseDef OID="WC.LB.LBORRES.GLUC">
                <RangeCheck SoftHard="Soft" def:ItemOID="IT.LB.LBTESTCD" Comparator="EQ">
                    <CheckValue>GLUC</CheckValue>
                </RangeCheck>
            </def:WhereClauseDef>
            <def:WhereClauseDef OID="WC.QS.TESTCD.IPAQ-SHORT-SELF-ADMINISTERED-VERSION">
                <RangeCheck SoftHard="Soft" def:ItemOID="IT.QS.QSCAT" Comparator="EQ">
                    <CheckValue>IPAQ SHORT - SELF ADMINISTERED VERSION</CheckValue>
                </RangeCheck>
            </def:WhereClauseDef>
            <def:WhereClauseDef
                OID="WC.QS.TESTCD.CLARK-HYPOGLYCEMIA-UNAWARENESS-SURVEY-SELF-ADMINISTERED">
                <RangeCheck SoftHard="Soft" def:ItemOID="IT.QS.QSCAT" Comparator="EQ">
                    <CheckValue>CLARK HYPOGLYCEMIA UNAWARENESS SURVEY SELF ADMINISTERED</CheckValue>
                </RangeCheck>
            </def:WhereClauseDef>
            <def:WhereClauseDef OID="WC.QS.TESTCD.PITTSBURG-SLEEP-QUALITY-INDEX">
                <RangeCheck SoftHard="Soft" def:ItemOID="IT.QS.QSCAT" Comparator="EQ">
                    <CheckValue>PITTSBURG SLEEP QUALITY INDEX</CheckValue>
                </RangeCheck>
            </def:WhereClauseDef>
            <def:WhereClauseDef OID="WC.QS.TEST.IPAQ-SHORT-SELF-ADMINISTERED-VERSION">
                <RangeCheck SoftHard="Soft" def:ItemOID="IT.QS.QSCAT" Comparator="EQ">
                    <CheckValue>IPAQ SHORT - SELF ADMINISTERED VERSION</CheckValue>
                </RangeCheck>
            </def:WhereClauseDef>
            <def:WhereClauseDef
                OID="WC.QS.TEST.CLARK-HYPOGLYCEMIA-UNAWARENESS-SURVEY-SELF-ADMINISTERED">
                <RangeCheck SoftHard="Soft" def:ItemOID="IT.QS.QSCAT" Comparator="EQ">
                    <CheckValue>CLARK HYPOGLYCEMIA UNAWARENESS SURVEY SELF ADMINISTERED</CheckValue>
                </RangeCheck>
            </def:WhereClauseDef>
            <def:WhereClauseDef OID="WC.QS.TEST.PITTSBURG-SLEEP-QUALITY-INDEX">
                <RangeCheck SoftHard="Soft" def:ItemOID="IT.QS.QSCAT" Comparator="EQ">
                    <CheckValue>PITTSBURG SLEEP QUALITY INDEX</CheckValue>
                </RangeCheck>
            </def:WhereClauseDef>
            <ItemGroupDef OID="IG.DM" Name="DM" Repeating="No" Domain="DM" IsReferenceData="No"
                Purpose="Tabulation" def:Structure="One record per subject"
                def:ArchiveLocationID="LF.DM" def:StandardOID="STD.1">
                <Description>
                    <TranslatedText xml:lang="en">Demographics</TranslatedText>
                </Description>
                <ItemRef ItemOID="IT.STUDYID" Mandatory="Yes" OrderNumber="1" KeySequence="1"
                    Role="Identifier"/>
                <ItemRef ItemOID="IT.DM.DOMAIN" Mandatory="Yes" OrderNumber="2" Role="Identifier"/>
                <ItemRef ItemOID="IT.USUBJID" Mandatory="Yes" OrderNumber="3" KeySequence="2"
                    Role="Identifier"/>
                <ItemRef ItemOID="IT.DM.SUBJID" Mandatory="Yes" OrderNumber="4" Role="Topic"/>
                <ItemRef ItemOID="IT.DM.SITEID" Mandatory="Yes" OrderNumber="5"
                    Role="Record Qualifier"/>
                <ItemRef ItemOID="IT.DM.BRTHDTC" Mandatory="No" OrderNumber="6"
                    Role="Record Qualifier"/>
                <ItemRef ItemOID="IT.DM.AGE" Mandatory="No" OrderNumber="7" Role="Record Qualifier"/>
                <ItemRef ItemOID="IT.DM.AGEU" Mandatory="No" OrderNumber="8"
                    Role="Variable Qualifier"/>
                <ItemRef ItemOID="IT.DM.SEX" Mandatory="Yes" OrderNumber="9" Role="Record Qualifier"/>
                <ItemRef ItemOID="IT.DM.RACE" Mandatory="No" OrderNumber="10"
                    Role="Record Qualifier"/>
                <ItemRef ItemOID="IT.DM.ETHNIC" Mandatory="No" OrderNumber="11"
                    Role="Record Qualifier"/>
                <ItemRef ItemOID="IT.DM.ARMCD" Mandatory="No" OrderNumber="12"
                    Role="Record Qualifier"/>
                <ItemRef ItemOID="IT.DM.ARM" Mandatory="No" OrderNumber="13"
                    Role="Synonym Qualifier"/>
                <ItemRef ItemOID="IT.DM.ACTARMCD" Mandatory="No" OrderNumber="14"
                    Role="Record Qualifier"/>
                <ItemRef ItemOID="IT.DM.ACTARM" Mandatory="No" OrderNumber="15"
                    Role="Synonym Qualifier"/>
                <ItemRef ItemOID="IT.DM.ARMNRS" Mandatory="No" OrderNumber="16"
                    Role="Record Qualifier"/>
                <ItemRef ItemOID="IT.DM.ACTARMUD" Mandatory="No" OrderNumber="17"
                    Role="Record Qualifier"/>
                <ItemRef ItemOID="IT.DM.COUNTRY" Mandatory="Yes" OrderNumber="18"
                    Role="Record Qualifier"/>
                <ItemRef ItemOID="IT.DM.DMDTC" Mandatory="No" OrderNumber="19" Role="Timing"/>
                <ItemRef ItemOID="IT.DM.DMDY" Mandatory="No" OrderNumber="20" Role="Timing"/>
                <def:Class Name="SPECIAL PURPOSE"/>
                <def:leaf ID="LF.DM" xlink:href="dm.xpt">
                    <def:title>dm.xpt</def:title>
                </def:leaf>
            </ItemGroupDef>
            <ItemGroupDef OID="IG.CM" Name="CM" Repeating="Yes" Domain="CM" IsReferenceData="No"
                Purpose="Tabulation"
                def:Structure="One record per recorded intervention occurrence or constant-dosing interval per subject"
                def:ArchiveLocationID="LF.CM" def:StandardOID="STD.1">
                <Description>
                    <TranslatedText xml:lang="en">Concomitant Medications</TranslatedText>
                </Description>
                <ItemRef ItemOID="IT.STUDYID" Mandatory="Yes" OrderNumber="1" KeySequence="1"
                    Role="Identifier"/>
                <ItemRef ItemOID="IT.CM.DOMAIN" Mandatory="Yes" OrderNumber="2" Role="Identifier"/>
                <ItemRef ItemOID="IT.USUBJID" Mandatory="Yes" OrderNumber="3" KeySequence="2"
                    Role="Identifier"/>
                <ItemRef ItemOID="IT.CM.CMSEQ" Mandatory="Yes" OrderNumber="4" Role="Identifier"/>
                <ItemRef ItemOID="IT.CM.CMGRPID" Mandatory="No" OrderNumber="5" Role="Identifier"/>
                <ItemRef ItemOID="IT.CM.CMTRT" Mandatory="Yes" OrderNumber="6" KeySequence="3"
                    Role="Topic"/>
                <ItemRef ItemOID="IT.CM.CMCAT" Mandatory="No" OrderNumber="7"
                    Role="Grouping Qualifier"/>
                <ItemRef ItemOID="IT.CM.CMSCAT" Mandatory="No" OrderNumber="8"
                    Role="Grouping Qualifier"/>
                <ItemRef ItemOID="IT.CM.CMPRESP" Mandatory="No" OrderNumber="9"
                    Role="Variable Qualifier"/>
                <ItemRef ItemOID="IT.CM.CMSTRTPT" Mandatory="No" OrderNumber="10" Role="Timing"/>
                <ItemRef ItemOID="IT.CM.CMSTTPT" Mandatory="No" OrderNumber="11" Role="Timing"/>
                <ItemRef ItemOID="IT.CM.CMENRTPT" Mandatory="No" OrderNumber="12" Role="Timing"/>
                <ItemRef ItemOID="IT.CM.CMENTPT" Mandatory="No" OrderNumber="13" Role="Timing"/>
                <ItemRef ItemOID="IT.CM.DRDELMTD" Mandatory="No" OrderNumber="15"
                    Role="Non-standard Record Qualifier" def:IsNonStandard="Yes"/>
                <def:Class Name="INTERVENTIONS"/>
                <def:leaf ID="LF.CM" xlink:href="cm.xpt">
                    <def:title>cm.xpt</def:title>
                </def:leaf>
            </ItemGroupDef>
            <ItemGroupDef OID="IG.DX" Name="DX" Repeating="Yes" Domain="DX" IsReferenceData="No"
                Purpose="Tabulation"
                def:Structure="One record per recorded intervention occurrence or constant treatment interval per subject"
                def:ArchiveLocationID="LF.DX" def:StandardOID="STD.2">
                <Description>
                    <TranslatedText xml:lang="en">Device Exposure</TranslatedText>
                </Description>
                <ItemRef ItemOID="IT.STUDYID" Mandatory="Yes" OrderNumber="1" KeySequence="1"
                    Role="Identifier"/>
                <ItemRef ItemOID="IT.DX.DOMAIN" Mandatory="Yes" OrderNumber="2" Role="Identifier"/>
                <ItemRef ItemOID="IT.USUBJID" Mandatory="Yes" OrderNumber="3" KeySequence="2"
                    Role="Identifier"/>
                <ItemRef ItemOID="IT.SPDEVID" Mandatory="Yes" OrderNumber="4" Role="Identifier"/>
                <ItemRef ItemOID="IT.DX.DXSEQ" Mandatory="Yes" OrderNumber="5" Role="Identifier"/>
                <ItemRef ItemOID="IT.DX.DXTRT" Mandatory="Yes" OrderNumber="6" KeySequence="3"
                    Role="Topic"/>
                <ItemRef ItemOID="IT.DX.DXCAT" Mandatory="No" OrderNumber="7"
                    Role="Grouping Qualifier"/>
                <ItemRef ItemOID="IT.DX.DXSCAT" Mandatory="No" OrderNumber="8"
                    Role="Grouping Qualifier"/>
                <ItemRef ItemOID="IT.DX.VISITNUM" Mandatory="No" OrderNumber="9" Role="Timing"/>
                <ItemRef ItemOID="IT.DX.VISIT" Mandatory="No" OrderNumber="10" Role="Timing"/>
                <ItemRef ItemOID="IT.DX.DXDTC" Mandatory="No" OrderNumber="11" KeySequence="4"
                    Role="Timing"/>
                <ItemRef ItemOID="IT.DX.DXSTRTPT" Mandatory="No" OrderNumber="12" Role="Timing"/>
                <ItemRef ItemOID="IT.DX.DXENRTPT" Mandatory="No" OrderNumber="13" Role="Timing"/>
                <ItemRef ItemOID="IT.DX.DXEVINTX" Mandatory="No" OrderNumber="14" Role="Timing"/>
                <def:Class Name="INTERVENTIONS"/>
                <def:leaf ID="LF.DX" xlink:href="dx.xpt">
                    <def:title>dx.xpt</def:title>
                </def:leaf>
            </ItemGroupDef>
            <ItemGroupDef OID="IG.ML" Name="ML" Repeating="Yes" Domain="ML" IsReferenceData="No"
                Purpose="Tabulation"
                def:Structure="One record per food product occurrence or constant intake interval per subject"
                def:ArchiveLocationID="LF.ML" def:StandardOID="STD.1">
                <Description>
                    <TranslatedText xml:lang="en">Meal Data</TranslatedText>
                </Description>
                <ItemRef ItemOID="IT.STUDYID" Mandatory="Yes" OrderNumber="1" KeySequence="1"
                    Role="Identifier"/>
                <ItemRef ItemOID="IT.ML.DOMAIN" Mandatory="Yes" OrderNumber="2" Role="Identifier"/>
                <ItemRef ItemOID="IT.USUBJID" Mandatory="Yes" OrderNumber="3" KeySequence="2"
                    Role="Identifier"/>
                <ItemRef ItemOID="IT.ML.MLSEQ" Mandatory="Yes" OrderNumber="4" Role="Identifier"/>
                <ItemRef ItemOID="IT.ML.MLLNKID" Mandatory="No" OrderNumber="5"/>
                <ItemRef ItemOID="IT.ML.MLGRPID" Mandatory="No" OrderNumber="6" Role="Identifier"/>
                <ItemRef ItemOID="IT.ML.MLTRT" Mandatory="Yes" OrderNumber="7" KeySequence="3"
                    Role="Topic"/>
                <ItemRef ItemOID="IT.ML.MLCAT" Mandatory="No" OrderNumber="8"
                    Role="Grouping Qualifier"/>
                <ItemRef ItemOID="IT.ML.MLDOSE" Mandatory="No" OrderNumber="9"
                    Role="Record Qualifier"/>
                <ItemRef ItemOID="IT.ML.MLDOSTOT" Mandatory="No" OrderNumber="10"/>
                <ItemRef ItemOID="IT.ML.MLDOSU" Mandatory="No" OrderNumber="11"
                    Role="Variable Qualifier"/>
                <ItemRef ItemOID="IT.ML.MLDOSFRQ" Mandatory="No" OrderNumber="12"
                    Role="Variable Qualified of --DOSE"/>
                <ItemRef ItemOID="IT.ML.MLDTC" Mandatory="No" OrderNumber="13" KeySequence="4"
                    Role="Timing"/>
                <ItemRef ItemOID="IT.ML.MLSVGNUM" Mandatory="No" OrderNumber="14"
                    Role="Non-standard Record Qualifier" def:IsNonStandard="Yes"/>
                <ItemRef ItemOID="IT.ML.MLDECDCD" Mandatory="No" OrderNumber="15"
                    Role="Non-standard Variable Qualifier of --DECOD" def:IsNonStandard="Yes"/>
                <ItemRef ItemOID="IT.ML.MLDNAMVR" Mandatory="No" OrderNumber="16"
                    Role="Non-standard Record Qualifier" def:IsNonStandard="Yes"/>
                <def:Class Name="INTERVENTIONS"/>
                <def:leaf ID="LF.ML" xlink:href="ml.xpt">
                    <def:title>ml.xpt</def:title>
                </def:leaf>
            </ItemGroupDef>
            <ItemGroupDef OID="IG.PR" Name="PR" Repeating="Yes" Domain="PR" IsReferenceData="No"
                Purpose="Tabulation"
                def:Structure="One record per recorded procedure per occurrence per subject"
                def:ArchiveLocationID="LF.PR" def:StandardOID="STD.1">
                <Description>
                    <TranslatedText xml:lang="en">Procedures</TranslatedText>
                </Description>
                <ItemRef ItemOID="IT.STUDYID" Mandatory="Yes" OrderNumber="1" KeySequence="1"
                    Role="Identifier"/>
                <ItemRef ItemOID="IT.PR.DOMAIN" Mandatory="Yes" OrderNumber="2" Role="Identifier"/>
                <ItemRef ItemOID="IT.USUBJID" Mandatory="Yes" OrderNumber="3" KeySequence="2"
                    Role="Identifier"/>
                <ItemRef ItemOID="IT.PR.PRSEQ" Mandatory="Yes" OrderNumber="4" Role="Identifier"/>
                <ItemRef ItemOID="IT.PR.PRLNKID" Mandatory="No" OrderNumber="5" Role="Identifier"/>
                <ItemRef ItemOID="IT.PR.PRTRT" Mandatory="Yes" OrderNumber="6" KeySequence="3"
                    Role="Topic"/>
                <ItemRef ItemOID="IT.PR.PRCAT" Mandatory="No" OrderNumber="7"
                    Role="Grouping Qualifier"/>
                <ItemRef ItemOID="IT.PR.PRSCAT" Mandatory="No" OrderNumber="8"
                    Role="Grouping Qualifier"/>
                <ItemRef ItemOID="IT.PR.PRSTDTC" Mandatory="No" OrderNumber="9" KeySequence="4"
                    Role="Timing"/>
                <ItemRef ItemOID="IT.PR.PRTRTC" Mandatory="No" OrderNumber="10"
                    Role="Non-standard Record Qualifier" def:IsNonStandard="Yes"/>
                <ItemRef ItemOID="IT.PR.PLNEXDUR" Mandatory="No" OrderNumber="11"
                    Role="Non-standard Record Qualifier" def:IsNonStandard="Yes"/>
                <ItemRef ItemOID="IT.PR.EXCINTSY" Mandatory="No" OrderNumber="12"
                    Role="Non-standard Record Qualifier" def:IsNonStandard="Yes"/>
                <ItemRef ItemOID="IT.PR.HRSLSTML" Mandatory="No" OrderNumber="13"
                    Role="Non-standard Record Qualifier" def:IsNonStandard="Yes"/>
                <ItemRef ItemOID="IT.PR.EXCOMP" Mandatory="No" OrderNumber="14"
                    Role="Non-standard Record Qualifier" def:IsNonStandard="Yes"/>
                <ItemRef ItemOID="IT.PR.SNKBEFEX" Mandatory="No" OrderNumber="15"
                    Role="Non-standard Record Qualifier" def:IsNonStandard="Yes"/>
                <ItemRef ItemOID="IT.PR.INUSDTDY" Mandatory="No" OrderNumber="16"
                    Role="Non-standard Record Qualifier" def:IsNonStandard="Yes"/>
                <ItemRef ItemOID="IT.PR.BETAGTDY" Mandatory="No" OrderNumber="17"
                    Role="Non-standard Record Qualifier" def:IsNonStandard="Yes"/>
                <ItemRef ItemOID="IT.PR.RESQCARB" Mandatory="No" OrderNumber="18"
                    Role="Non-standard Record Qualifier" def:IsNonStandard="Yes"/>
                <def:Class Name="INTERVENTIONS"/>
                <def:leaf ID="LF.PR" xlink:href="pr.xpt">
                    <def:title>pr.xpt</def:title>
                </def:leaf>
            </ItemGroupDef>
            <ItemGroupDef OID="IG.LB" Name="LB" Repeating="Yes" Domain="LB" IsReferenceData="No"
                Purpose="Tabulation"
                def:Structure="One record per lab test per time point per visit per subject"
                def:ArchiveLocationID="LF.LB" def:StandardOID="STD.1">
                <Description>
                    <TranslatedText xml:lang="en">Laboratory Test Results</TranslatedText>
                </Description>
                <ItemRef ItemOID="IT.STUDYID" Mandatory="Yes" OrderNumber="1" KeySequence="1"
                    Role="Identifier"/>
                <ItemRef ItemOID="IT.LB.DOMAIN" Mandatory="Yes" OrderNumber="2" Role="Identifier"/>
                <ItemRef ItemOID="IT.USUBJID" Mandatory="Yes" OrderNumber="3" KeySequence="2"
                    Role="Identifier"/>
                <ItemRef ItemOID="IT.LB.LBSEQ" Mandatory="Yes" OrderNumber="4" Role="Identifier"/>
                <ItemRef ItemOID="IT.LB.LBTESTCD" Mandatory="Yes" OrderNumber="5" KeySequence="3"
                    Role="Topic"/>
                <ItemRef ItemOID="IT.LB.LBTEST" Mandatory="Yes" OrderNumber="6"
                    Role="Synonym Qualifier"/>
                <ItemRef ItemOID="IT.LB.LBCAT" Mandatory="No" OrderNumber="7"
                    Role="Grouping Qualifier"/>
                <ItemRef ItemOID="IT.LB.LBORRES" Mandatory="No" OrderNumber="8"
                    Role="Result Qualifier"/>
                <ItemRef ItemOID="IT.LB.LBORRESU" Mandatory="No" OrderNumber="9"
                    Role="Variable Qualifier"/>
                <ItemRef ItemOID="IT.LB.LBSTRESC" Mandatory="No" OrderNumber="10"
                    Role="Result Qualifier"/>
                <ItemRef ItemOID="IT.LB.LBSTRESN" Mandatory="No" OrderNumber="11"
                    Role="Result Qualifier"/>
                <ItemRef ItemOID="IT.LB.LBSTRESU" Mandatory="No" OrderNumber="12"
                    Role="Variable Qualifier"/>
                <ItemRef ItemOID="IT.LB.LBDTC" Mandatory="No" OrderNumber="13"/>
                <ItemRef ItemOID="IT.LB.LBSOURCE" Mandatory="No" OrderNumber="14"
                    Role="Non-Standard Record Qualifier" def:IsNonStandard="Yes"/>
                <ItemRef ItemOID="IT.LB.LBCRNORD" Mandatory="No" OrderNumber="15"
                    Role="Non-Standard Record Qualifier" def:IsNonStandard="Yes"/>
                <ItemRef ItemOID="IT.LB.LBSETTING" Mandatory="No" OrderNumber="16"
                    Role="Non-Standard Record Qualifier" def:IsNonStandard="Yes"/>
                <ItemRef ItemOID="IT.LB.LBTMINT" Mandatory="No" OrderNumber="17"
                    Role="Non-Standard Timing" def:IsNonStandard="Yes"/>
                <def:Class Name="FINDINGS"/>
                <def:leaf ID="LF.LB" xlink:href="lb.xpt">
                    <def:title>lb.xpt</def:title>
                </def:leaf>
            </ItemGroupDef>
            <ItemGroupDef OID="IG.NV" Name="NV" Repeating="Yes" Domain="NV" IsReferenceData="No"
                Purpose="Tabulation"
                def:Structure="One record per finding per location per time point per visit per subject"
                def:ArchiveLocationID="LF.NV" def:StandardOID="STD.1">
                <Description>
                    <TranslatedText xml:lang="en">Nervous System Findings</TranslatedText>
                </Description>
                <ItemRef ItemOID="IT.STUDYID" Mandatory="Yes" OrderNumber="1" KeySequence="1"
                    Role="Identifier"/>
                <ItemRef ItemOID="IT.NV.DOMAIN" Mandatory="Yes" OrderNumber="2" Role="Identifier"/>
                <ItemRef ItemOID="IT.USUBJID" Mandatory="Yes" OrderNumber="3" KeySequence="2"
                    Role="Identifier"/>
                <ItemRef ItemOID="IT.NV.NVSEQ" Mandatory="Yes" OrderNumber="4" Role="Identifier"/>
                <ItemRef ItemOID="IT.NV.NVLNKID" Mandatory="No" OrderNumber="5" Role="Identifier"/>
                <ItemRef ItemOID="IT.NV.NVTESTCD" Mandatory="Yes" OrderNumber="6" KeySequence="3"
                    Role="Topic"/>
                <ItemRef ItemOID="IT.NV.NVTEST" Mandatory="Yes" OrderNumber="7"
                    Role="Synonym Qualifier"/>
                <ItemRef ItemOID="IT.NV.NVCAT" Mandatory="No" OrderNumber="8"
                    Role="Grouping Qualifier"/>
                <ItemRef ItemOID="IT.NV.NVORRES" Mandatory="No" OrderNumber="9"
                    Role="Result Qualifier"/>
                <ItemRef ItemOID="IT.NV.NVORRESU" Mandatory="No" OrderNumber="10"
                    Role="Variable Qualifier"/>
                <ItemRef ItemOID="IT.NV.NVSTRESC" Mandatory="No" OrderNumber="11"
                    Role="Result Qualifier"/>
                <ItemRef ItemOID="IT.NV.NVSTRESN" Mandatory="No" OrderNumber="12"
                    Role="Result Qualifier"/>
                <ItemRef ItemOID="IT.NV.NVSTRESU" Mandatory="No" OrderNumber="13"
                    Role="Variable Qualifier"/>
                <ItemRef ItemOID="IT.NV.NVMETHOD" Mandatory="No" OrderNumber="14"
                    Role="Record Qualifier"/>
                <ItemRef ItemOID="IT.NV.NVDTC" Mandatory="No" OrderNumber="15" KeySequence="4"
                    Role="Timing"/>
                <ItemRef ItemOID="IT.NV.VSENDTC" Mandatory="No" OrderNumber="16" Role="Timing"/>
                <def:Class Name="FINDINGS"/>
                <def:leaf ID="LF.NV" xlink:href="nv.xpt">
                    <def:title>nv.xpt</def:title>
                </def:leaf>
            </ItemGroupDef>
            <ItemGroupDef OID="IG.QS" Name="QS" Repeating="Yes" Domain="QS" IsReferenceData="No"
                Purpose="Tabulation"
                def:Structure="One record per questionnaire per question per time point per visit per subject"
                def:ArchiveLocationID="LF.QS" def:StandardOID="STD.1">
                <Description>
                    <TranslatedText xml:lang="en">Questionnaires</TranslatedText>
                </Description>
                <ItemRef ItemOID="IT.STUDYID" Mandatory="Yes" OrderNumber="1" KeySequence="1"
                    Role="Identifier"/>
                <ItemRef ItemOID="IT.QS.DOMAIN" Mandatory="Yes" OrderNumber="2" Role="Identifier"/>
                <ItemRef ItemOID="IT.USUBJID" Mandatory="Yes" OrderNumber="3" KeySequence="2"
                    Role="Identifier"/>
                <ItemRef ItemOID="IT.QS.QSSEQ" Mandatory="Yes" OrderNumber="4" Role="Identifier"/>
                <ItemRef ItemOID="IT.QS.QSTESTCD" Mandatory="Yes" OrderNumber="5" KeySequence="3"
                    Role="Topic"/>
                <ItemRef ItemOID="IT.QS.QSTEST" Mandatory="Yes" OrderNumber="6"
                    Role="Synonym Qualifier"/>
                <ItemRef ItemOID="IT.QS.QSCAT" Mandatory="Yes" OrderNumber="7"
                    Role="Grouping Qualifier"/>
                <ItemRef ItemOID="IT.QS.QSORRES" Mandatory="No" OrderNumber="8"
                    Role="Result Qualifier"/>
                <ItemRef ItemOID="IT.QS.QSORRESU" Mandatory="No" OrderNumber="9"
                    Role="Variable Qualifier"/>
                <ItemRef ItemOID="IT.QS.QSSTRESC" Mandatory="No" OrderNumber="10"
                    Role="Result Qualifier"/>
                <ItemRef ItemOID="IT.QS.QSSTRESN" Mandatory="No" OrderNumber="11"
                    Role="Result Qualifier"/>
                <ItemRef ItemOID="IT.QS.QSSTRESU" Mandatory="No" OrderNumber="12"
                    Role="Variable Qualifier"/>
                <ItemRef ItemOID="IT.QS.QSDTC" Mandatory="No" OrderNumber="13" KeySequence="4"
                    Role="Timing"/>
                <def:Class Name="FINDINGS"/>
                <def:leaf ID="LF.QS" xlink:href="qs.xpt">
                    <def:title>qs.xpt</def:title>
                </def:leaf>
            </ItemGroupDef>
            <ItemGroupDef OID="IG.RP" Name="RP" Repeating="Yes" Domain="RP" IsReferenceData="No"
                Purpose="Tabulation"
                def:Structure="One record per finding or result per time point per visit per subject"
                def:ArchiveLocationID="LF.RP" def:StandardOID="STD.1">
                <Description>
                    <TranslatedText xml:lang="en">Reproductive System Findings</TranslatedText>
                </Description>
                <ItemRef ItemOID="IT.STUDYID" Mandatory="Yes" OrderNumber="1" KeySequence="1"
                    Role="Identifier"/>
                <ItemRef ItemOID="IT.RP.DOMAIN" Mandatory="Yes" OrderNumber="2" Role="Identifier"/>
                <ItemRef ItemOID="IT.USUBJID" Mandatory="Yes" OrderNumber="3" KeySequence="2"
                    Role="Identifier"/>
                <ItemRef ItemOID="IT.RP.RPTESTCD" Mandatory="Yes" OrderNumber="4" KeySequence="3"
                    Role="Topic"/>
                <ItemRef ItemOID="IT.RP.RPTEST" Mandatory="Yes" OrderNumber="5"
                    Role="Synonym Qualifier"/>
                <ItemRef ItemOID="IT.RP.RPORRES" Mandatory="No" OrderNumber="6"
                    Role="Result Qualifier"/>
                <ItemRef ItemOID="IT.RP.RPSTRESC" Mandatory="No" OrderNumber="7"
                    Role="Result Qualifier"/>
                <ItemRef ItemOID="IT.RP.RPDTC" Mandatory="No" OrderNumber="8" KeySequence="4"
                    Role="Timing"/>
                <def:Class Name="FINDINGS"/>
                <def:leaf ID="LF.RP" xlink:href="rp.xpt">
                    <def:title>rp.xpt</def:title>
                </def:leaf>
            </ItemGroupDef>
            <ItemGroupDef OID="IG.SC" Name="SC" Repeating="Yes" Domain="SC" IsReferenceData="No"
                Purpose="Tabulation" def:Structure="One record per characteristic per subject."
                def:ArchiveLocationID="LF.SC" def:StandardOID="STD.1">
                <Description>
                    <TranslatedText xml:lang="en">Subject Characteristics</TranslatedText>
                </Description>
                <ItemRef ItemOID="IT.STUDYID" Mandatory="Yes" OrderNumber="1" KeySequence="1"
                    Role="Identifier"/>
                <ItemRef ItemOID="IT.SC.DOMAIN" Mandatory="Yes" OrderNumber="2" Role="Identifier"/>
                <ItemRef ItemOID="IT.USUBJID" Mandatory="Yes" OrderNumber="3" KeySequence="2"
                    Role="Identifier"/>
                <ItemRef ItemOID="IT.SC.SCSEQ" Mandatory="Yes" OrderNumber="4" Role="Identifier"/>
                <ItemRef ItemOID="IT.SC.SCTESTCD" Mandatory="Yes" OrderNumber="5" KeySequence="3"
                    Role="Topic"/>
                <ItemRef ItemOID="IT.SC.SCTEST" Mandatory="Yes" OrderNumber="6"
                    Role="Synonym Qualifier"/>
                <ItemRef ItemOID="IT.SC.SCORRES" Mandatory="No" OrderNumber="7"
                    Role="Result Qualifier"/>
                <ItemRef ItemOID="IT.SC.SCSTRESC" Mandatory="No" OrderNumber="8"
                    Role="Result Qualifier"/>
                <ItemRef ItemOID="IT.SC.SCDTC" Mandatory="No" OrderNumber="9" KeySequence="4"
                    Role="Timing"/>
                <def:Class Name="FINDINGS"/>
                <def:leaf ID="LF.SC" xlink:href="sc.xpt">
                    <def:title>sc.xpt</def:title>
                </def:leaf>
            </ItemGroupDef>
            <ItemGroupDef OID="IG.VS" Name="VS" Repeating="Yes" Domain="VS" IsReferenceData="No"
                Purpose="Tabulation"
                def:Structure="One record per vital sign measurement per time point per visit per subject"
                def:ArchiveLocationID="LF.VS" def:StandardOID="STD.1">
                <Description>
                    <TranslatedText xml:lang="en">Vital Signs</TranslatedText>
                </Description>
                <ItemRef ItemOID="IT.STUDYID" Mandatory="Yes" OrderNumber="1" KeySequence="1"
                    Role="Identifier"/>
                <ItemRef ItemOID="IT.VS.DOMAIN" Mandatory="Yes" OrderNumber="2" Role="Identifier"/>
                <ItemRef ItemOID="IT.USUBJID" Mandatory="Yes" OrderNumber="3" KeySequence="2"
                    Role="Identifier"/>
                <ItemRef ItemOID="IT.VS.VSSEQ" Mandatory="Yes" OrderNumber="4" Role="Identifier"/>
                <ItemRef ItemOID="IT.VS.VSGRPID" Mandatory="No" OrderNumber="5" Role="Identifier"/>
                <ItemRef ItemOID="IT.VS.VSTESTCD" Mandatory="Yes" OrderNumber="6" KeySequence="3"
                    Role="Topic"/>
                <ItemRef ItemOID="IT.VS.VSTEST" Mandatory="Yes" OrderNumber="7"
                    Role="Synonym Qualifier"/>
                <ItemRef ItemOID="IT.VS.VSCAT" Mandatory="No" OrderNumber="8"
                    Role="Grouping Qualifier"/>
                <ItemRef ItemOID="IT.VS.VSSCAT" Mandatory="No" OrderNumber="9"
                    Role="Grouping Qualifier"/>
                <ItemRef ItemOID="IT.VS.VSORRES" Mandatory="No" OrderNumber="10"
                    Role="Result Qualifier"/>
                <ItemRef ItemOID="IT.VS.VSORRESU" Mandatory="No" OrderNumber="11"
                    Role="Variable Qualifier"/>
                <ItemRef ItemOID="IT.VS.VSSTRESC" Mandatory="No" OrderNumber="12"
                    Role="Result Qualifier"/>
                <ItemRef ItemOID="IT.VS.VSSTRESN" Mandatory="No" OrderNumber="13"
                    Role="Result Qualifier"/>
                <ItemRef ItemOID="IT.VS.VSSTRESU" Mandatory="No" OrderNumber="14"
                    Role="Variable Qualifier"/>
                <ItemRef ItemOID="IT.VS.VSDTC" Mandatory="No" OrderNumber="15" Role="Timing"/>
                <ItemRef ItemOID="IT.VS.VSENDTC" Mandatory="No" OrderNumber="16" Role="Timing"/>
                <def:Class Name="FINDINGS"/>
                <def:leaf ID="LF.VS" xlink:href="vs.xpt">
                    <def:title>vs.xpt</def:title>
                </def:leaf>
            </ItemGroupDef>
            <ItemGroupDef OID="IG.FA" Name="FA" Repeating="Yes" Domain="FA" IsReferenceData="No"
                Purpose="Tabulation"
                def:Structure="One record per finding, per object, per time point, per visit per subject"
                def:ArchiveLocationID="LF.FA" def:StandardOID="STD.1">
                <Description>
                    <TranslatedText xml:lang="en">Findings About</TranslatedText>
                </Description>
                <ItemRef ItemOID="IT.STUDYID" Mandatory="Yes" OrderNumber="1" KeySequence="1"
                    Role="Identifier"/>
                <ItemRef ItemOID="IT.FA.DOMAIN" Mandatory="Yes" OrderNumber="2" Role="Identifier"/>
                <ItemRef ItemOID="IT.USUBJID" Mandatory="Yes" OrderNumber="3" KeySequence="2"
                    Role="Identifier"/>
                <ItemRef ItemOID="IT.FA.FASEQ" Mandatory="Yes" OrderNumber="4" Role="Identifier"/>
                <ItemRef ItemOID="IT.FA.FAGRPID" Mandatory="No" OrderNumber="5" Role="Identifier"/>
                <ItemRef ItemOID="IT.FA.FALNKID" Mandatory="No" OrderNumber="6" Role="Identifier"/>
                <ItemRef ItemOID="IT.FA.FATESTCD" Mandatory="Yes" OrderNumber="7" KeySequence="3"
                    Role="Topic"/>
                <ItemRef ItemOID="IT.FA.FATEST" Mandatory="Yes" OrderNumber="8"
                    Role="Synonym Qualifier"/>
                <ItemRef ItemOID="IT.FA.FAOBJ" Mandatory="Yes" OrderNumber="9" KeySequence="4"
                    Role="Record Qualifier"/>
                <ItemRef ItemOID="IT.FA.FACAT" Mandatory="No" OrderNumber="10"
                    Role="Grouping Qualifier"/>
                <ItemRef ItemOID="IT.FA.FAORRES" Mandatory="No" OrderNumber="11"
                    Role="Result Qualifier"/>
                <ItemRef ItemOID="IT.FA.FAORRESU" Mandatory="No" OrderNumber="12"
                    Role="Variable Qualifier"/>
                <ItemRef ItemOID="IT.FA.FASTRESC" Mandatory="No" OrderNumber="13"
                    Role="Result Qualifier"/>
                <ItemRef ItemOID="IT.FA.FASTRESN" Mandatory="No" OrderNumber="14"
                    Role="Result Qualifier"/>
                <ItemRef ItemOID="IT.FA.FASTRESU" Mandatory="No" OrderNumber="15"
                    Role="Variable Qualifier"/>
                <ItemRef ItemOID="IT.FA.FADTC" Mandatory="No" OrderNumber="16" KeySequence="5"
                    Role="Timing"/>
                <ItemRef ItemOID="IT.FA.FAENDTC" Mandatory="No" OrderNumber="17" Role="Timing"/>
                <ItemRef ItemOID="IT.FA.BEDTIME" Mandatory="No" OrderNumber="18"
                    Role="Non-standard Record Qualifier" def:IsNonStandard="Yes"/>
                <ItemRef ItemOID="IT.FA.RISETIME" Mandatory="No" OrderNumber="19"
                    Role="Non-standard Record Qualifier" def:IsNonStandard="Yes"/>
                <def:Class Name="FINDINGS ABOUT"/>
                <def:leaf ID="LF.FA" xlink:href="fa.xpt">
                    <def:title>fa.xpt</def:title>
                </def:leaf>
            </ItemGroupDef>
            <ItemGroupDef OID="IG.FACM" Name="FACM" Repeating="Yes" Domain="FACM"
                IsReferenceData="No" Purpose="Tabulation"
                def:Structure="One record per finding, per object, per time point, per visit per subject"
                def:ArchiveLocationID="LF.FACM" def:StandardOID="STD.1">
                <Description>
                    <TranslatedText xml:lang="en">Findings About Concomitant
                        Medications</TranslatedText>
                </Description>
                <ItemRef ItemOID="IT.STUDYID" Mandatory="Yes" OrderNumber="1" KeySequence="1"
                    Role="Identifier"/>
                <ItemRef ItemOID="IT.FACM.DOMAIN" Mandatory="Yes" OrderNumber="2" Role="Identifier"/>
                <ItemRef ItemOID="IT.USUBJID" Mandatory="Yes" OrderNumber="3" KeySequence="2"
                    Role="Identifier"/>
                <ItemRef ItemOID="IT.SPDEVID" Mandatory="Yes" OrderNumber="4" Role="Identifier"/>
                <ItemRef ItemOID="IT.FACM.FASEQ" Mandatory="Yes" OrderNumber="5" Role="Identifier"/>
                <ItemRef ItemOID="IT.FACM.FALNKID" Mandatory="No" OrderNumber="6" Role="Identifier"/>
                <ItemRef ItemOID="IT.FACM.FATESTCD" Mandatory="Yes" OrderNumber="7" KeySequence="3"
                    Role="Topic"/>
                <ItemRef ItemOID="IT.FACM.FATEST" Mandatory="Yes" OrderNumber="8"
                    Role="Synonym Qualifier"/>
                <ItemRef ItemOID="IT.FACM.FAOBJ" Mandatory="Yes" OrderNumber="9" KeySequence="4"
                    Role="Record Qualifier"/>
                <ItemRef ItemOID="IT.FACM.FACAT" Mandatory="No" OrderNumber="10"
                    Role="Grouping Qualifier"/>
                <ItemRef ItemOID="IT.FACM.FAORRES" Mandatory="No" OrderNumber="11"
                    Role="Result Qualifier"/>
                <ItemRef ItemOID="IT.FACM.FAORRESU" Mandatory="No" OrderNumber="12"
                    Role="Variable Qualifier"/>
                <ItemRef ItemOID="IT.FACM.FASTRESC" Mandatory="No" OrderNumber="13" KeySequence="5"
                    Role="Result Qualifier"/>
                <ItemRef ItemOID="IT.FACM.FASTRESN" Mandatory="No" OrderNumber="14"
                    Role="Result Qualifier"/>
                <ItemRef ItemOID="IT.FACM.FASTRESU" Mandatory="No" OrderNumber="15"
                    Role="Variable Qualifier"/>
                <ItemRef ItemOID="IT.FACM.FADTC" Mandatory="No" OrderNumber="16" Role="Timing"/>
                <ItemRef ItemOID="IT.FACM.FADUR" Mandatory="No" OrderNumber="17" Role="Timing"/>
                <ItemRef ItemOID="IT.FACM.INSDVSRC" Mandatory="No" OrderNumber="18"
                    Role="Non-standard Record Qualifier" def:IsNonStandard="Yes"/>
                <ItemRef ItemOID="IT.FACM.INSSTYPE" Mandatory="No" OrderNumber="19"
                    Role="Non-standard Record Qualifier" def:IsNonStandard="Yes"/>
                <ItemRef ItemOID="IT.FACM.INSNMBOL" Mandatory="No" OrderNumber="20"
                    Role="Non-standard Record Qualifier" def:IsNonStandard="Yes"/>
                <ItemRef ItemOID="IT.FACM.INSEXBOL" Mandatory="No" OrderNumber="21"
                    Role="Non-standard Record Qualifier" def:IsNonStandard="Yes"/>
                <def:Class Name="FINDINGS ABOUT"/>
                <def:leaf ID="LF.FACM" xlink:href="facm.xpt">
                    <def:title>facm.xpt</def:title>
                </def:leaf>
            </ItemGroupDef>
            <ItemGroupDef OID="IG.FADX" Name="FADX" Repeating="Yes" Domain="FADX"
                IsReferenceData="No" Purpose="Tabulation"
                def:Structure="One record per finding, per object, per time point, per visit per subject"
                def:ArchiveLocationID="LF.FADX" def:StandardOID="STD.1">
                <Description>
                    <TranslatedText xml:lang="en">Findings About Device Exposure</TranslatedText>
                </Description>
                <ItemRef ItemOID="IT.STUDYID" Mandatory="Yes" OrderNumber="1" KeySequence="1"
                    Role="Identifier"/>
                <ItemRef ItemOID="IT.FADX.DOMAIN" Mandatory="Yes" OrderNumber="2" Role="Identifier"/>
                <ItemRef ItemOID="IT.USUBJID" Mandatory="Yes" OrderNumber="3" KeySequence="2"
                    Role="Identifier"/>
                <ItemRef ItemOID="IT.FADX.FASEQ" Mandatory="Yes" OrderNumber="4" Role="Identifier"/>
                <ItemRef ItemOID="IT.FADX.FAGRPID" Mandatory="No" OrderNumber="5" Role="Identifier"/>
                <ItemRef ItemOID="IT.FADX.FASPID" Mandatory="No" OrderNumber="6" Role="Identifier"/>
                <ItemRef ItemOID="IT.FADX.FATESTCD" Mandatory="Yes" OrderNumber="7" KeySequence="3"
                    Role="Topic"/>
                <ItemRef ItemOID="IT.FADX.FATEST" Mandatory="Yes" OrderNumber="8"
                    Role="Synonym Qualifier"/>
                <ItemRef ItemOID="IT.FADX.FAOBJ" Mandatory="Yes" OrderNumber="9" KeySequence="4"
                    Role="Record Qualifier"/>
                <ItemRef ItemOID="IT.FADX.FACAT" Mandatory="No" OrderNumber="10"
                    Role="Grouping Qualifier"/>
                <ItemRef ItemOID="IT.FADX.FASCAT" Mandatory="No" OrderNumber="11"
                    Role="Grouping Qualifier"/>
                <ItemRef ItemOID="IT.FADX.FAORRES" Mandatory="No" OrderNumber="12"
                    Role="Result Qualifier"/>
                <ItemRef ItemOID="IT.FADX.FAORRESU" Mandatory="No" OrderNumber="13"
                    Role="Variable Qualifier"/>
                <ItemRef ItemOID="IT.FADX.FASTRESC" Mandatory="No" OrderNumber="14"
                    Role="Result Qualifier"/>
                <ItemRef ItemOID="IT.FADX.FASTRESN" Mandatory="No" OrderNumber="15"
                    Role="Result Qualifier"/>
                <ItemRef ItemOID="IT.FADX.FASTRESU" Mandatory="No" OrderNumber="16"
                    Role="Variable Qualifier"/>
                <ItemRef ItemOID="IT.FADX.FABLFL" Mandatory="No" OrderNumber="17"
                    Role="Record Qualifier"/>
                <ItemRef ItemOID="IT.FADX.FADTC" Mandatory="No" OrderNumber="18" KeySequence="5"
                    Role="Timing"/>
                <ItemRef ItemOID="IT.FADX.FAEVLINT" Mandatory="No" OrderNumber="19" Role="Timing"/>
                <ItemRef ItemOID="IT.FADX.DISINSEX" Mandatory="No" OrderNumber="20"
                    Role="Non-standard Record Qualifier" def:IsNonStandard="Yes"/>
                <ItemRef ItemOID="IT.FADX.SUSPINS" Mandatory="No" OrderNumber="21"
                    Role="Non-standard Record Qualifier" def:IsNonStandard="Yes"/>
                <def:Class Name="FINDINGS ABOUT"/>
                <def:leaf ID="LF.FADX" xlink:href="fadx.xpt">
                    <def:title>fadx.xpt</def:title>
                </def:leaf>
            </ItemGroupDef>
            <ItemGroupDef OID="IG.FAML" Name="FAML" Repeating="Yes" Domain="FAML"
                IsReferenceData="No" Purpose="Tabulation"
                def:Structure="One record per finding, per object, per time point, per visit per subject"
                def:ArchiveLocationID="LF.FAML" def:StandardOID="STD.1">
                <Description>
                    <TranslatedText xml:lang="en">Findings About Meal Data</TranslatedText>
                </Description>
                <def:Class Name="FINDINGS ABOUT"/>
                <def:leaf ID="LF.FAML" xlink:href="faml.xpt">
                    <def:title>faml.xpt</def:title>
                </def:leaf>
            </ItemGroupDef>
            <ItemGroupDef OID="IG.FAML_DAILY" Name="FAML_daily" Repeating="Yes" Domain="FAML_daily"
                IsReferenceData="No" Purpose="Tabulation"
                def:Structure="One record per finding, per object, per time point, per visit per subject"
                def:ArchiveLocationID="LF.FAML_daily" def:StandardOID="STD.1">
                <Description>
                    <TranslatedText xml:lang="en">Findings About Meal Data (daily)</TranslatedText>
                </Description>
                <ItemRef ItemOID="IT.STUDYID" Mandatory="Yes" OrderNumber="1" KeySequence="1"
                    Role="Identifier"/>
                <ItemRef ItemOID="IT.FAML_daily.DOMAIN" Mandatory="Yes" OrderNumber="2"
                    Role="Identifier"/>
                <ItemRef ItemOID="IT.USUBJID" Mandatory="Yes" OrderNumber="3" KeySequence="2"
                    Role="Identifier"/>
                <ItemRef ItemOID="IT.FAML_daily.FASEQ" Mandatory="Yes" OrderNumber="4"
                    Role="Identifier"/>
                <ItemRef ItemOID="IT.FAML_daily.FAGRPID" Mandatory="No" OrderNumber="5"
                    Role="Identifier"/>
                <ItemRef ItemOID="IT.FAML_daily.FALINKID" Mandatory="No" OrderNumber="6"/>
                <ItemRef ItemOID="IT.FAML_daily.FATESTCD" Mandatory="Yes" OrderNumber="7"
                    KeySequence="3" Role="Topic"/>
                <ItemRef ItemOID="IT.FAML_daily.FATEST" Mandatory="Yes" OrderNumber="8"
                    Role="Synonym Qualifier"/>
                <ItemRef ItemOID="IT.FAML_daily.FAOBJ" Mandatory="Yes" OrderNumber="9"
                    KeySequence="4" Role="Record Qualifier"/>
                <ItemRef ItemOID="IT.FAML_daily.FACAT" Mandatory="No" OrderNumber="10"
                    Role="Grouping Qualifier"/>
                <ItemRef ItemOID="IT.FAML_daily.FASCAT" Mandatory="No" OrderNumber="11"
                    Role="Grouping Qualifier"/>
                <ItemRef ItemOID="IT.FAML_daily.FAORRES" Mandatory="No" OrderNumber="12"
                    Role="Result Qualifier"/>
                <ItemRef ItemOID="IT.FAML_daily.FAORRESU" Mandatory="No" OrderNumber="13"
                    Role="Variable Qualifier"/>
                <ItemRef ItemOID="IT.FAML_daily.FASTRESC" Mandatory="No" OrderNumber="14"
                    Role="Result Qualifier"/>
                <ItemRef ItemOID="IT.FAML_daily.FASTRESN" Mandatory="No" OrderNumber="15"
                    Role="Result Qualifier"/>
                <ItemRef ItemOID="IT.FAML_daily.FASTRESU" Mandatory="No" OrderNumber="16"
                    Role="Variable Qualifier"/>
                <ItemRef ItemOID="IT.FAML_daily.FAMETHOD" Mandatory="No" OrderNumber="17"/>
                <ItemRef ItemOID="IT.FAML_daily.FAANMETH" Mandatory="No" OrderNumber="18"/>
                <ItemRef ItemOID="IT.FAML_daily.FADTC" Mandatory="No" OrderNumber="19"
                    KeySequence="5" Role="Timing"/>
                <ItemRef ItemOID="IT.FAML_daily.MLSVGNUM" Mandatory="No" OrderNumber="21"
                    Role="Non-standard Record Qualifier" def:IsNonStandard="Yes"/>
                <def:Class Name="FINDINGS ABOUT"/>
                <def:leaf ID="LF.FAML_DAILY" xlink:href="faml_daily.xpt">
                    <def:title>faml_daily.xpt</def:title>
                </def:leaf>
            </ItemGroupDef>
            <ItemGroupDef OID="IG.FAML_ITEM" Name="FAML_item" Repeating="Yes" Domain="FAML_item"
                IsReferenceData="No" Purpose="Tabulation"
                def:Structure="One record per finding, per object, per time point, per visit per subject"
                def:ArchiveLocationID="LF.FAML_item" def:StandardOID="STD.1">
                <Description>
                    <TranslatedText xml:lang="en">Findings About Meal Data (item)</TranslatedText>
                </Description>
                <ItemRef ItemOID="IT.STUDYID" Mandatory="Yes" OrderNumber="1" KeySequence="1"
                    Role="Identifier"/>
                <ItemRef ItemOID="IT.FAML_item.DOMAIN" Mandatory="Yes" OrderNumber="2"
                    Role="Identifier"/>
                <ItemRef ItemOID="IT.USUBJID" Mandatory="Yes" OrderNumber="3" KeySequence="2"
                    Role="Identifier"/>
                <ItemRef ItemOID="IT.FAML_item.FASEQ" Mandatory="Yes" OrderNumber="4"
                    Role="Identifier"/>
                <ItemRef ItemOID="IT.FAML_item.FAGRPID" Mandatory="No" OrderNumber="5"
                    Role="Identifier"/>
                <ItemRef ItemOID="IT.FAML_item.FALINKID" Mandatory="No" OrderNumber="6"/>
                <ItemRef ItemOID="IT.FAML_item.FATESTCD" Mandatory="Yes" OrderNumber="7"
                    KeySequence="3" Role="Topic"/>
                <ItemRef ItemOID="IT.FAML_item.FATEST" Mandatory="Yes" OrderNumber="8"
                    Role="Synonym Qualifier"/>
                <ItemRef ItemOID="IT.FAML_item.FAOBJ" Mandatory="Yes" OrderNumber="9"
                    KeySequence="4" Role="Record Qualifier"/>
                <ItemRef ItemOID="IT.FAML_item.FACAT" Mandatory="No" OrderNumber="10"
                    Role="Grouping Qualifier"/>
                <ItemRef ItemOID="IT.FAML_item.FASCAT" Mandatory="No" OrderNumber="11"
                    Role="Grouping Qualifier"/>
                <ItemRef ItemOID="IT.FAML_item.FAORRES" Mandatory="No" OrderNumber="12"
                    Role="Result Qualifier"/>
                <ItemRef ItemOID="IT.FAML_item.FAORRESU" Mandatory="No" OrderNumber="13"
                    Role="Variable Qualifier"/>
                <ItemRef ItemOID="IT.FAML_item.FASTRESC" Mandatory="No" OrderNumber="14"
                    Role="Result Qualifier"/>
                <ItemRef ItemOID="IT.FAML_item.FASTRESN" Mandatory="No" OrderNumber="15"
                    Role="Result Qualifier"/>
                <ItemRef ItemOID="IT.FAML_item.FASTRESU" Mandatory="No" OrderNumber="16"
                    Role="Variable Qualifier"/>
                <ItemRef ItemOID="IT.FAML_item.FAMETHOD" Mandatory="No" OrderNumber="17"/>
                <ItemRef ItemOID="IT.FAML_item.FAANMETH" Mandatory="No" OrderNumber="18"/>
                <ItemRef ItemOID="IT.FAML_item.FADTC" Mandatory="No" OrderNumber="19"
                    KeySequence="5" Role="Timing"/>
                <ItemRef ItemOID="IT.FAML_item.MLSVGNUM" Mandatory="No" OrderNumber="21"
                    Role="Non-standard Record Qualifier" def:IsNonStandard="Yes"/>
                <def:Class Name="FINDINGS ABOUT"/>
                <def:leaf ID="LF.FAML_ITEM" xlink:href="faml_item.xpt">
                    <def:title>faml_item.xpt</def:title>
                </def:leaf>
            </ItemGroupDef>
            <ItemGroupDef OID="IG.FAML_MEAL" Name="FAML_meal" Repeating="Yes" Domain="FAML_meal"
                IsReferenceData="No" Purpose="Tabulation"
                def:Structure="One record per finding, per object, per time point, per visit per subject"
                def:ArchiveLocationID="LF.FAML_meal" def:StandardOID="STD.1">
                <Description>
                    <TranslatedText xml:lang="en">Findings About Meal Data (meal)</TranslatedText>
                </Description>
                <ItemRef ItemOID="IT.STUDYID" Mandatory="Yes" OrderNumber="1" KeySequence="1"
                    Role="Identifier"/>
                <ItemRef ItemOID="IT.FAML_meal.DOMAIN" Mandatory="Yes" OrderNumber="2"
                    Role="Identifier"/>
                <ItemRef ItemOID="IT.USUBJID" Mandatory="Yes" OrderNumber="3" KeySequence="2"
                    Role="Identifier"/>
                <ItemRef ItemOID="IT.FAML_meal.FASEQ" Mandatory="Yes" OrderNumber="4"
                    Role="Identifier"/>
                <ItemRef ItemOID="IT.FAML_meal.FAGRPID" Mandatory="No" OrderNumber="5"
                    Role="Identifier"/>
                <ItemRef ItemOID="IT.FAML_meal.FALINKID" Mandatory="No" OrderNumber="6"/>
                <ItemRef ItemOID="IT.FAML_meal.FATESTCD" Mandatory="Yes" OrderNumber="7"
                    KeySequence="3" Role="Topic"/>
                <ItemRef ItemOID="IT.FAML_meal.FATEST" Mandatory="Yes" OrderNumber="8"
                    Role="Synonym Qualifier"/>
                <ItemRef ItemOID="IT.FAML_meal.FAOBJ" Mandatory="Yes" OrderNumber="9"
                    KeySequence="4" Role="Record Qualifier"/>
                <ItemRef ItemOID="IT.FAML_meal.FACAT" Mandatory="No" OrderNumber="10"
                    Role="Grouping Qualifier"/>
                <ItemRef ItemOID="IT.FAML_meal.FASCAT" Mandatory="No" OrderNumber="11"
                    Role="Grouping Qualifier"/>
                <ItemRef ItemOID="IT.FAML_meal.FAORRES" Mandatory="No" OrderNumber="12"
                    Role="Result Qualifier"/>
                <ItemRef ItemOID="IT.FAML_meal.FAORRESU" Mandatory="No" OrderNumber="13"
                    Role="Variable Qualifier"/>
                <ItemRef ItemOID="IT.FAML_meal.FASTRESC" Mandatory="No" OrderNumber="14"
                    Role="Result Qualifier"/>
                <ItemRef ItemOID="IT.FAML_meal.FASTRESN" Mandatory="No" OrderNumber="15"
                    Role="Result Qualifier"/>
                <ItemRef ItemOID="IT.FAML_meal.FASTRESU" Mandatory="No" OrderNumber="16"
                    Role="Variable Qualifier"/>
                <ItemRef ItemOID="IT.FAML_meal.FAMETHOD" Mandatory="No" OrderNumber="17"/>
                <ItemRef ItemOID="IT.FAML_meal.FAANMETH" Mandatory="No" OrderNumber="18"/>
                <ItemRef ItemOID="IT.FAML_meal.FADTC" Mandatory="No" OrderNumber="19"
                    KeySequence="5" Role="Timing"/>
                <ItemRef ItemOID="IT.FAML_meal.MLSVGNUM" Mandatory="No" OrderNumber="21"
                    Role="Non-standard Record Qualifier" def:IsNonStandard="Yes"/>
                <def:Class Name="FINDINGS ABOUT"/>
                <def:leaf ID="LF.FAML_MEAL" xlink:href="faml_meal.xpt">
                    <def:title>faml_meal.xpt</def:title>
                </def:leaf>
            </ItemGroupDef>
            <ItemGroupDef OID="IG.FAPR" Name="FAPR" Repeating="Yes" Domain="FAPR"
                IsReferenceData="No" Purpose="Tabulation"
                def:Structure="One record per finding, per object, per time point, per visit per subject"
                def:ArchiveLocationID="LF.FAPR" def:StandardOID="STD.1">
                <Description>
                    <TranslatedText xml:lang="en">Findings About Procedures</TranslatedText>
                </Description>
                <ItemRef ItemOID="IT.STUDYID" Mandatory="Yes" OrderNumber="1" KeySequence="1"
                    Role="Identifier"/>
                <ItemRef ItemOID="IT.FAPR.DOMAIN" Mandatory="Yes" OrderNumber="2" Role="Identifier"/>
                <ItemRef ItemOID="IT.USUBJID" Mandatory="Yes" OrderNumber="3" KeySequence="2"
                    Role="Identifier"/>
                <ItemRef ItemOID="IT.FAPR.FASEQ" Mandatory="Yes" OrderNumber="4" Role="Identifier"/>
                <ItemRef ItemOID="IT.FAPR.FALNKID" Mandatory="No" OrderNumber="5" Role="Identifier"/>
                <ItemRef ItemOID="IT.FAPR.FATESTCD" Mandatory="Yes" OrderNumber="6" KeySequence="3"
                    Role="Topic"/>
                <ItemRef ItemOID="IT.FAPR.FATEST" Mandatory="Yes" OrderNumber="7"
                    Role="Synonym Qualifier"/>
                <ItemRef ItemOID="IT.FAPR.FAOBJ" Mandatory="Yes" OrderNumber="8" KeySequence="4"
                    Role="Record Qualifier"/>
                <ItemRef ItemOID="IT.FAPR.FACAT" Mandatory="No" OrderNumber="9"
                    Role="Grouping Qualifier"/>
                <ItemRef ItemOID="IT.FAPR.FAORRES" Mandatory="No" OrderNumber="10"
                    Role="Result Qualifier"/>
                <ItemRef ItemOID="IT.FAPR.FASTRESC" Mandatory="No" OrderNumber="11"
                    Role="Result Qualifier"/>
                <ItemRef ItemOID="IT.FAPR.FASTRESN" Mandatory="No" OrderNumber="12"
                    Role="Result Qualifier"/>
                <ItemRef ItemOID="IT.FAPR.FADTC" Mandatory="No" OrderNumber="13" KeySequence="5"
                    Role="Timing"/>
                <ItemRef ItemOID="IT.FAPR.FAENDTC" Mandatory="No" OrderNumber="14" Role="Timing"/>
                <def:Class Name="FINDINGS ABOUT"/>
                <def:leaf ID="LF.FAPR" xlink:href="fapr.xpt">
                    <def:title>fapr.xpt</def:title>
                </def:leaf>
            </ItemGroupDef>
            <ItemGroupDef OID="IG.RELREC" Name="RELREC" Repeating="Yes" Domain="RELREC"
                IsReferenceData="No" Purpose="Tabulation"
                def:Structure="One record per related record, group of records or dataset"
                def:ArchiveLocationID="LF.RELREC" def:StandardOID="STD.1">
                <Description>
                    <TranslatedText xml:lang="en">Related Records</TranslatedText>
                </Description>
                <ItemRef ItemOID="IT.STUDYID" Mandatory="Yes" OrderNumber="1" KeySequence="1"
                    Role="Identifier"/>
                <ItemRef ItemOID="IT.RELREC.RDOMAIN" Mandatory="Yes" OrderNumber="2" KeySequence="2"
                    Role="Identifier"/>
                <ItemRef ItemOID="IT.USUBJID" Mandatory="No" OrderNumber="3" KeySequence="3"
                    Role="Identifier"/>
                <ItemRef ItemOID="IT.RELREC.IDVAR" Mandatory="Yes" OrderNumber="4" KeySequence="4"
                    Role="Identifier"/>
                <ItemRef ItemOID="IT.RELREC.IDVARVAL" Mandatory="No" OrderNumber="5" KeySequence="5"
                    Role="Identifier"/>
                <ItemRef ItemOID="IT.RELREC.RELTYPE" Mandatory="No" OrderNumber="6"
                    Role="Record Qualifier"/>
                <ItemRef ItemOID="IT.RELREC.RELID" Mandatory="Yes" OrderNumber="7" KeySequence="6"
                    Role="Record Qualifier"/>
                <def:Class Name="RELATIONSHIP"/>
                <def:leaf ID="LF.RELREC" xlink:href="relrec.xpt">
                    <def:title>relrec.xpt</def:title>
                </def:leaf>
            </ItemGroupDef>
            <ItemGroupDef OID="IG.SUPPDM" Name="SUPPDM" Repeating="Yes" Domain="SUPPDM"
                IsReferenceData="No" Purpose="Tabulation"
                def:Structure="One record per IDVAR, IDVARVAL, and QNAM value per subject"
                def:ArchiveLocationID="LF.SUPPDM" def:StandardOID="STD.1">
                <Description>
                    <TranslatedText xml:lang="en">Supplemetal Demographics</TranslatedText>
                </Description>
                <ItemRef ItemOID="IT.STUDYID" Mandatory="Yes" OrderNumber="1" KeySequence="1"
                    Role="Identifier"/>
                <ItemRef ItemOID="IT.SUPPDM.RDOMAIN" Mandatory="Yes" OrderNumber="2" KeySequence="2"
                    Role="Identifier"/>
                <ItemRef ItemOID="IT.USUBJID" Mandatory="Yes" OrderNumber="3" KeySequence="3"
                    Role="Identifier"/>
                <ItemRef ItemOID="IT.SUPPDM.IDVAR" Mandatory="No" OrderNumber="4" KeySequence="4"
                    Role="Identifier"/>
                <ItemRef ItemOID="IT.SUPPDM.IDVARVAL" Mandatory="No" OrderNumber="5" KeySequence="5"
                    Role="Identifier"/>
                <ItemRef ItemOID="IT.SUPPDM.QNAM" Mandatory="Yes" OrderNumber="6" KeySequence="6"
                    Role="Topic"/>
                <ItemRef ItemOID="IT.SUPPDM.QLABEL" Mandatory="Yes" OrderNumber="7"
                    Role="Synonym Qualifier"/>
                <ItemRef ItemOID="IT.SUPPDM.QVAL" Mandatory="Yes" OrderNumber="8"
                    Role="Result Qualifier"/>
                <ItemRef ItemOID="IT.SUPPDM.QORIG" Mandatory="Yes" OrderNumber="9"
                    Role="Record Qualifier"/>
                <ItemRef ItemOID="IT.SUPPDM.QEVAL" Mandatory="No" OrderNumber="10"
                    Role="Record Qualifier"/>
                <def:Class Name="RELATIONSHIP"/>
                <def:leaf ID="LF.SUPPDM" xlink:href="suppdm.xpt">
                    <def:title>suppdm.xpt</def:title>
                </def:leaf>
            </ItemGroupDef>
            <ItemGroupDef OID="IG.DI" Name="DI" Repeating="Yes" Domain="DI" IsReferenceData="No"
                Purpose="Tabulation" def:Structure="One record per device identifier per device"
                def:ArchiveLocationID="LF.DI" def:StandardOID="STD.2">
                <Description>
                    <TranslatedText xml:lang="en">Device Identifiers</TranslatedText>
                </Description>
                <ItemRef ItemOID="IT.STUDYID" Mandatory="Yes" OrderNumber="1" KeySequence="1"
                    Role="Identifier"/>
                <ItemRef ItemOID="IT.DI.DOMAIN" Mandatory="Yes" OrderNumber="2" Role="Identifier"/>
                <ItemRef ItemOID="IT.SPDEVID" Mandatory="Yes" OrderNumber="3" KeySequence="2"
                    Role="Identifier"/>
                <ItemRef ItemOID="IT.DI.DISEQ" Mandatory="No" OrderNumber="4" KeySequence="3"
                    Role="Identifier"/>
                <ItemRef ItemOID="IT.DI.DIPARMCD" Mandatory="Yes" OrderNumber="5" KeySequence="4"
                    Role="Topic"/>
                <ItemRef ItemOID="IT.DI.DIPARM" Mandatory="Yes" OrderNumber="6"
                    Role="Synonym Qualifier"/>
                <ItemRef ItemOID="IT.DI.DIVAL" Mandatory="Yes" OrderNumber="7"
                    Role="Result Qualifier"/>
                <def:Class Name="STUDY REFERENCE"/>
                <def:leaf ID="LF.DI" xlink:href="di.xpt">
                    <def:title>di.xpt</def:title>
                </def:leaf>
            </ItemGroupDef>
            <ItemDef OID="IT.STUDYID" Name="STUDYID" DataType="text" SASFieldName="STUDYID"
                Length="6">
                <Description>
                    <TranslatedText xml:lang="en">Study Identifier</TranslatedText>
                </Description>
            </ItemDef>
            <ItemDef OID="IT.CM.DOMAIN" Name="DOMAIN" DataType="text" SASFieldName="DOMAIN"
                Length="2">
                <Description>
                    <TranslatedText xml:lang="en">Domain Abbreviation</TranslatedText>
                </Description>
                <CodeListRef CodeListOID="CL.DOMAIN.CM"/>
            </ItemDef>
            <ItemDef OID="IT.USUBJID" Name="USUBJID" DataType="text" SASFieldName="USUBJID"
                Length="20">
                <Description>
                    <TranslatedText xml:lang="en">Unique Subject Identifier</TranslatedText>
                </Description>
            </ItemDef>
            <ItemDef OID="IT.CM.CMSEQ" Name="CMSEQ" DataType="integer" SASFieldName="CMSEQ"
                Length="3">
                <Description>
                    <TranslatedText xml:lang="en">Sequence Number</TranslatedText>
                </Description>
            </ItemDef>
            <ItemDef OID="IT.CM.CMGRPID" Name="CMGRPID" DataType="text" SASFieldName="CMGRPID"
                Length="1">
                <Description>
                    <TranslatedText xml:lang="en">Group ID</TranslatedText>
                </Description>
            </ItemDef>
            <ItemDef OID="IT.CM.CMTRT" Name="CMTRT" DataType="text" SASFieldName="CMTRT" Length="34">
                <Description>
                    <TranslatedText xml:lang="en">Reported Name of Drug, Med, or
                        Therapy</TranslatedText>
                </Description>
            </ItemDef>
            <ItemDef OID="IT.CM.CMCAT" Name="CMCAT" DataType="text" SASFieldName="CMCAT" Length="19">
                <Description>
                    <TranslatedText xml:lang="en">Category for Medication</TranslatedText>
                </Description>
            </ItemDef>
            <ItemDef OID="IT.CM.CMSCAT" Name="CMSCAT" DataType="text" SASFieldName="CMSCAT"
                Length="25">
                <Description>
                    <TranslatedText xml:lang="en">Subcategory for Medication</TranslatedText>
                </Description>
            </ItemDef>
            <ItemDef OID="IT.CM.CMPRESP" Name="CMPRESP" DataType="text" SASFieldName="CMPRESP"
                Length="1">
                <Description>
                    <TranslatedText xml:lang="en">CM Pre-specified</TranslatedText>
                </Description>
                <CodeListRef CodeListOID="CL.C66742"/>
            </ItemDef>
            <ItemDef OID="IT.CM.CMSTRTPT" Name="CMSTRTPT" DataType="text" SASFieldName="CMSTRTPT"
                Length="6">
                <Description>
                    <TranslatedText xml:lang="en">Start Relative to Reference Time
                        Point</TranslatedText>
                </Description>
                <CodeListRef CodeListOID="CL.C66728"/>
            </ItemDef>
            <ItemDef OID="IT.CM.CMSTTPT" Name="CMSTTPT" DataType="datetime" SASFieldName="CMSTTPT">
                <Description>
                    <TranslatedText xml:lang="en">Start Reference Time Point</TranslatedText>
                </Description>
            </ItemDef>
            <ItemDef OID="IT.CM.CMENRTPT" Name="CMENRTPT" DataType="text" SASFieldName="CMENRTPT"
                Length="7">
                <Description>
                    <TranslatedText xml:lang="en">End Relative to Reference Time
                        Point</TranslatedText>
                </Description>
                <CodeListRef CodeListOID="CL.C66728"/>
            </ItemDef>
            <ItemDef OID="IT.CM.CMENTPT" Name="CMENTPT" DataType="datetime" SASFieldName="CMENTPT">
                <Description>
                    <TranslatedText xml:lang="en">End Reference Time Point</TranslatedText>
                </Description>
            </ItemDef>
            <ItemDef OID="IT.CM.DRDELMTD" Name="DRDELMTD" DataType="text" SASFieldName="DRDELMTD"
                Length="11">
                <Description>
                    <TranslatedText xml:lang="en">Delivery Method</TranslatedText>
                </Description>
            </ItemDef>
            <ItemDef OID="IT.DI.DOMAIN" Name="DOMAIN" DataType="text" SASFieldName="DOMAIN"
                Length="2">
                <Description>
                    <TranslatedText xml:lang="en">Domain Abbreviation</TranslatedText>
                </Description>
                <CodeListRef CodeListOID="CL.DOMAIN.DI"/>
            </ItemDef>
            <ItemDef OID="IT.SPDEVID" Name="SPDEVID" DataType="text" SASFieldName="SPDEVID"
                Length="6">
                <Description>
                    <TranslatedText xml:lang="en">Sponsor Device Identifier</TranslatedText>
                </Description>
            </ItemDef>
            <ItemDef OID="IT.DI.DISEQ" Name="DISEQ" DataType="integer" SASFieldName="DISEQ"
                Length="1">
                <Description>
                    <TranslatedText xml:lang="en">Sequence Number</TranslatedText>
                </Description>
            </ItemDef>
            <ItemDef OID="IT.DI.DIPARMCD" Name="DIPARMCD" DataType="text" SASFieldName="DIPARMCD"
                Length="8">
                <Description>
                    <TranslatedText xml:lang="en">Device Identifier Element Short
                        Name</TranslatedText>
                </Description>
            </ItemDef>
            <ItemDef OID="IT.DI.DIPARM" Name="DIPARM" DataType="text" SASFieldName="DIPARM"
                Length="26">
                <Description>
                    <TranslatedText xml:lang="en">Device Identifier Element Name</TranslatedText>
                </Description>
            </ItemDef>
            <ItemDef OID="IT.DI.DIVAL" Name="DIVAL" DataType="text" SASFieldName="DIVAL" Length="45">
                <Description>
                    <TranslatedText xml:lang="en">Device Identifier Element Value</TranslatedText>
                </Description>
            </ItemDef>
            <ItemDef OID="IT.DM.DOMAIN" Name="DOMAIN" DataType="text" SASFieldName="DOMAIN"
                Length="2">
                <Description>
                    <TranslatedText xml:lang="en">Domain Abbreviation</TranslatedText>
                </Description>
                <CodeListRef CodeListOID="CL.DOMAIN.DM"/>
            </ItemDef>
            <ItemDef OID="IT.DM.SUBJID" Name="SUBJID" DataType="text" SASFieldName="SUBJID"
                Length="20">
                <Description>
                    <TranslatedText xml:lang="en">Subject Identifier for the Study</TranslatedText>
                </Description>
            </ItemDef>
            <ItemDef OID="IT.DM.SITEID" Name="SITEID" DataType="text" SASFieldName="SITEID"
                Length="1">
                <Description>
                    <TranslatedText xml:lang="en">Study Site Identifier</TranslatedText>
                </Description>
            </ItemDef>
            <ItemDef OID="IT.DM.BRTHDTC" Name="BRTHDTC" DataType="datetime" SASFieldName="BRTHDTC"
                def:CommentOID="COM.ISO8601">
                <Description>
                    <TranslatedText xml:lang="en">Date/Time of Birth</TranslatedText>
                </Description>
            </ItemDef>
            <ItemDef OID="IT.DM.AGE" Name="AGE" DataType="integer" SASFieldName="AGE" Length="3">
                <Description>
                    <TranslatedText xml:lang="en">Age</TranslatedText>
                </Description>
            </ItemDef>
            <ItemDef OID="IT.DM.AGEU" Name="AGEU" DataType="text" SASFieldName="AGEU" Length="5">
                <Description>
                    <TranslatedText xml:lang="en">Age Units</TranslatedText>
                </Description>
                <CodeListRef CodeListOID="CL.C66781"/>
            </ItemDef>
            <ItemDef OID="IT.DM.SEX" Name="SEX" DataType="text" SASFieldName="SEX" Length="6">
                <Description>
                    <TranslatedText xml:lang="en">Sex</TranslatedText>
                </Description>
                <CodeListRef CodeListOID="CL.C66731"/>
            </ItemDef>
            <ItemDef OID="IT.DM.RACE" Name="RACE" DataType="text" SASFieldName="RACE" Length="38">
                <Description>
                    <TranslatedText xml:lang="en">Race</TranslatedText>
                </Description>
                <CodeListRef CodeListOID="CL.C74457"/>
            </ItemDef>
            <ItemDef OID="IT.DM.ETHNIC" Name="ETHNIC" DataType="text" SASFieldName="ETHNIC"
                Length="22">
                <Description>
                    <TranslatedText xml:lang="en">Ethnicity</TranslatedText>
                </Description>
                <CodeListRef CodeListOID="CL.C66790"/>
            </ItemDef>
            <ItemDef OID="IT.DM.ARMCD" Name="ARMCD" DataType="text" SASFieldName="ARMCD" Length="10">
                <Description>
                    <TranslatedText xml:lang="en">Planned Arm Code</TranslatedText>
                </Description>
            </ItemDef>
            <ItemDef OID="IT.DM.ARM" Name="ARM" DataType="text" SASFieldName="ARM" Length="10">
                <Description>
                    <TranslatedText xml:lang="en">Description of Planned Arm</TranslatedText>
                </Description>
            </ItemDef>
            <ItemDef OID="IT.DM.ACTARMCD" Name="ACTARMCD" DataType="text" SASFieldName="ACTARMCD"
                Length="10">
                <Description>
                    <TranslatedText xml:lang="en">Actual Arm Code</TranslatedText>
                </Description>
            </ItemDef>
            <ItemDef OID="IT.DM.ACTARM" Name="ACTARM" DataType="text" SASFieldName="ACTARM"
                Length="10">
                <Description>
                    <TranslatedText xml:lang="en">Description of Actual Arm</TranslatedText>
                </Description>
            </ItemDef>
            <ItemDef OID="IT.DM.ARMNRS" Name="ARMNRS" DataType="text" SASFieldName="ARMNRS"
                Length="10">
                <Description>
                    <TranslatedText xml:lang="en">Reason Arm and/or Actual Arm is
                        Null</TranslatedText>
                </Description>
            </ItemDef>
            <ItemDef OID="IT.DM.ACTARMUD" Name="ACTARMUD" DataType="text" SASFieldName="ACTARMUD"
                Length="10">
                <Description>
                    <TranslatedText xml:lang="en">Description of Unplanned Actual
                        Arm</TranslatedText>
                </Description>
            </ItemDef>
            <ItemDef OID="IT.DM.COUNTRY" Name="COUNTRY" DataType="text" SASFieldName="COUNTRY"
                Length="3" def:CommentOID="COM.ISO3166-1">
                <Description>
                    <TranslatedText xml:lang="en">Country</TranslatedText>
                </Description>
                <CodeListRef CodeListOID="CL.ISO3166"/>
            </ItemDef>
            <ItemDef OID="IT.DM.DMDTC" Name="DMDTC" DataType="datetime" SASFieldName="DMDTC"
                def:CommentOID="COM.ISO8601">
                <Description>
                    <TranslatedText xml:lang="en">Date/Time of Collection</TranslatedText>
                </Description>
            </ItemDef>
            <ItemDef OID="IT.DM.DMDY" Name="DMDY" DataType="integer" SASFieldName="DMDY" Length="4">
                <Description>
                    <TranslatedText xml:lang="en">Study Day of Collection</TranslatedText>
                </Description>
            </ItemDef>
            <ItemDef OID="IT.DX.DOMAIN" Name="DOMAIN" DataType="text" SASFieldName="DOMAIN"
                Length="2">
                <Description>
                    <TranslatedText xml:lang="en">Domain Abbreviation</TranslatedText>
                </Description>
                <CodeListRef CodeListOID="CL.DOMAIN.DX"/>
            </ItemDef>
            <ItemDef OID="IT.DX.DXSEQ" Name="DXSEQ" DataType="integer" SASFieldName="DXSEQ"
                Length="1">
                <Description>
                    <TranslatedText xml:lang="en">Sequence Number</TranslatedText>
                </Description>
            </ItemDef>
            <ItemDef OID="IT.DX.DXTRT" Name="DXTRT" DataType="text" SASFieldName="DXTRT" Length="41">
                <Description>
                    <TranslatedText xml:lang="en">Name of Device Exposure or Output</TranslatedText>
                </Description>
                <CodeListRef CodeListOID="CL.DX.DXTRT"/>
            </ItemDef>
            <ItemDef OID="IT.DX.DXCAT" Name="DXCAT" DataType="text" SASFieldName="DXCAT" Length="20">
                <Description>
                    <TranslatedText xml:lang="en">Category for Device Exposure</TranslatedText>
                </Description>
            </ItemDef>
            <ItemDef OID="IT.DX.DXSCAT" Name="DXSCAT" DataType="text" SASFieldName="DXSCAT"
                Length="7">
                <Description>
                    <TranslatedText xml:lang="en">Subcategory for Device Exposure</TranslatedText>
                </Description>
            </ItemDef>
            <ItemDef OID="IT.DX.VISITNUM" Name="VISITNUM" DataType="integer" SASFieldName="VISITNUM"
                Length="1">
                <Description>
                    <TranslatedText xml:lang="en">Visit Number</TranslatedText>
                </Description>
            </ItemDef>
            <ItemDef OID="IT.DX.VISIT" Name="VISIT" DataType="text" SASFieldName="VISIT" Length="9">
                <Description>
                    <TranslatedText xml:lang="en">Visit Name</TranslatedText>
                </Description>
            </ItemDef>
            <ItemDef OID="IT.DX.DXDTC" Name="DXDTC" DataType="datetime" SASFieldName="DXDTC"
                def:CommentOID="COM.ISO8601">
                <Description>
                    <TranslatedText xml:lang="en">Visit Date</TranslatedText>
                </Description>
            </ItemDef>
            <ItemDef OID="IT.DX.DXSTRTPT" Name="DXSTRTPT" DataType="text" SASFieldName="DXSTRTPT"
                Length="6">
                <Description>
                    <TranslatedText xml:lang="en">Start Relative to Reference Time
                        Point</TranslatedText>
                </Description>
            </ItemDef>
            <ItemDef OID="IT.DX.DXENRTPT" Name="DXENRTPT" DataType="text" SASFieldName="DXENRTPT"
                Length="7">
                <Description>
                    <TranslatedText xml:lang="en">End Relative to Reference Time
                        Point</TranslatedText>
                </Description>
            </ItemDef>
            <ItemDef OID="IT.DX.DXEVINTX" Name="DXEVINTX" DataType="text" SASFieldName="DXEVINTX"
                Length="7">
                <Description>
                    <TranslatedText xml:lang="en">Evaluation Interval Text</TranslatedText>
                </Description>
            </ItemDef>
            <ItemDef OID="IT.FA.DOMAIN" Name="DOMAIN" DataType="text" SASFieldName="DOMAIN"
                Length="2">
                <Description>
                    <TranslatedText xml:lang="en">Domain Abbreviation</TranslatedText>
                </Description>
                <CodeListRef CodeListOID="CL.DOMAIN.FA"/>
            </ItemDef>
            <ItemDef OID="IT.FA.FASEQ" Name="FASEQ" DataType="integer" SASFieldName="FASEQ"
                Length="1">
                <Description>
                    <TranslatedText xml:lang="en">Sequence Number</TranslatedText>
                </Description>
            </ItemDef>
            <ItemDef OID="IT.FA.FAGRPID" Name="FAGRPID" DataType="text" SASFieldName="FAGRPID"
                Length="1">
                <Description>
                    <TranslatedText xml:lang="en">Group ID</TranslatedText>
                </Description>
            </ItemDef>
            <ItemDef OID="IT.FA.FALNKID" Name="FALNKID" DataType="text" SASFieldName="FALNKID"
                Length="100">
                <Description>
                    <TranslatedText xml:lang="en">Link ID</TranslatedText>
                </Description>
            </ItemDef>
            <ItemDef OID="IT.FA.FATESTCD" Name="FATESTCD" DataType="text" SASFieldName="FATESTCD"
                Length="8">
                <Description>
                    <TranslatedText xml:lang="en">Findings About Test Short Name</TranslatedText>
                </Description>
            </ItemDef>
            <ItemDef OID="IT.FA.FATEST" Name="FATEST" DataType="text" SASFieldName="FATEST"
                Length="13">
                <Description>
                    <TranslatedText xml:lang="en">Findings About Test Name</TranslatedText>
                </Description>
            </ItemDef>
            <ItemDef OID="IT.FA.FAOBJ" Name="FAOBJ" DataType="text" SASFieldName="FAOBJ" Length="30">
                <Description>
                    <TranslatedText xml:lang="en">Object of the Observation</TranslatedText>
                </Description>
            </ItemDef>
            <ItemDef OID="IT.FA.FACAT" Name="FACAT" DataType="text" SASFieldName="FACAT" Length="19">
                <Description>
                    <TranslatedText xml:lang="en">Category for Findings About</TranslatedText>
                </Description>
            </ItemDef>
            <ItemDef OID="IT.FA.FAORRES" Name="FAORRES" DataType="text" SASFieldName="FAORRES"
                Length="100">
                <Description>
                    <TranslatedText xml:lang="en">Result or Finding in Original
                        Units</TranslatedText>
                </Description>
                <def:ValueListRef ValueListOID="VL.FA.FAORRES"/>
            </ItemDef>
            <ItemDef OID="IT.FA.FAORRESU" Name="FAORRESU" DataType="text" SASFieldName="FAORRESU"
                Length="5">
                <Description>
                    <TranslatedText xml:lang="en">Original Units</TranslatedText>
                </Description>
                <CodeListRef CodeListOID="CL.C71620"/>
            </ItemDef>
            <ItemDef OID="IT.FA.FASTRESC" Name="FASTRESC" DataType="text" SASFieldName="FASTRESC"
                Length="100">
                <Description>
                    <TranslatedText xml:lang="en">Character Result/Finding in Std
                        Format</TranslatedText>
                </Description>
            </ItemDef>
            <ItemDef OID="IT.FA.FASTRESN" Name="FASTRESN" DataType="integer" SASFieldName="FASTRESN"
                Length="8">
                <Description>
                    <TranslatedText xml:lang="en">Numeric Result/Finding in Standard
                        Units</TranslatedText>
                </Description>
            </ItemDef>
            <ItemDef OID="IT.FA.FASTRESU" Name="FASTRESU" DataType="text" SASFieldName="FASTRESU"
                Length="5">
                <Description>
                    <TranslatedText xml:lang="en">Standard Units</TranslatedText>
                </Description>
                <CodeListRef CodeListOID="CL.C71620"/>
            </ItemDef>
            <ItemDef OID="IT.FA.FADTC" Name="FADTC" DataType="datetime" SASFieldName="FADTC"
                def:CommentOID="COM.ISO8601">
                <Description>
                    <TranslatedText xml:lang="en">Collection data and time of
                        findings</TranslatedText>
                </Description>
            </ItemDef>
            <ItemDef OID="IT.FA.FAENDTC" Name="FAENDTC" DataType="datetime" SASFieldName="FAENDTC"
                def:CommentOID="COM.ISO8601">
                <Description>
                    <TranslatedText xml:lang="en">End date and time of findings</TranslatedText>
                </Description>
            </ItemDef>
            <ItemDef OID="IT.FA.BEDTIME" Name="BEDTIME" DataType="text" SASFieldName="BEDTIME"
                Length="200">
                <Description>
                    <TranslatedText xml:lang="en">Bedtime last night</TranslatedText>
                </Description>
            </ItemDef>
            <ItemDef OID="IT.FA.RISETIME" Name="RISETIME" DataType="text" SASFieldName="RISETIME"
                Length="200">
                <Description>
                    <TranslatedText xml:lang="en">Risetime today</TranslatedText>
                </Description>
            </ItemDef>
            <ItemDef OID="IT.FADX.DOMAIN" Name="DOMAIN" DataType="text" SASFieldName="DOMAIN"
                Length="2">
                <Description>
                    <TranslatedText xml:lang="en">Domain Abbreviation</TranslatedText>
                </Description>
                <CodeListRef CodeListOID="CL.DOMAIN.FA"/>
            </ItemDef>
            <ItemDef OID="IT.FADX.FASEQ" Name="FASEQ" DataType="integer" SASFieldName="FASEQ"
                Length="1">
                <Description>
                    <TranslatedText xml:lang="en">Sequence Number</TranslatedText>
                </Description>
            </ItemDef>
            <ItemDef OID="IT.FADX.FAGRPID" Name="FAGRPID" DataType="text" SASFieldName="FAGRPID"
                Length="1">
                <Description>
                    <TranslatedText xml:lang="en">Group ID</TranslatedText>
                </Description>
            </ItemDef>
            <ItemDef OID="IT.FADX.FASPID" Name="FASPID" DataType="text" SASFieldName="FASPID"
                Length="50">
                <Description>
                    <TranslatedText xml:lang="en">Sponsor-Defined Identifier</TranslatedText>
                </Description>
            </ItemDef>
            <ItemDef OID="IT.FADX.FATESTCD" Name="FATESTCD" DataType="text" SASFieldName="FATESTCD"
                Length="6">
                <Description>
                    <TranslatedText xml:lang="en">Findings About Test Short Name</TranslatedText>
                </Description>
            </ItemDef>
            <ItemDef OID="IT.FADX.FATEST" Name="FATEST" DataType="text" SASFieldName="FATEST"
                Length="19">
                <Description>
                    <TranslatedText xml:lang="en">Findings About Test Name</TranslatedText>
                </Description>
            </ItemDef>
            <ItemDef OID="IT.FADX.FAOBJ" Name="FAOBJ" DataType="text" SASFieldName="FAOBJ"
                Length="18">
                <Description>
                    <TranslatedText xml:lang="en">Object of the Observation</TranslatedText>
                </Description>
            </ItemDef>
            <ItemDef OID="IT.FADX.FACAT" Name="FACAT" DataType="text" SASFieldName="FACAT"
                Length="2">
                <Description>
                    <TranslatedText xml:lang="en">Category for Findings About</TranslatedText>
                </Description>
            </ItemDef>
            <ItemDef OID="IT.FADX.FASCAT" Name="FASCAT" DataType="text" SASFieldName="FASCAT"
                Length="20">
                <Description>
                    <TranslatedText xml:lang="en">Subcategory for Findings About</TranslatedText>
                </Description>
            </ItemDef>
            <ItemDef OID="IT.FADX.FAORRES" Name="FAORRES" DataType="text" SASFieldName="FAORRES"
                Length="22">
                <Description>
                    <TranslatedText xml:lang="en">Result or Finding in Original
                        Units</TranslatedText>
                </Description>
                <def:ValueListRef ValueListOID="VL.FADX.FAORRES"/>
            </ItemDef>
            <ItemDef OID="IT.FADX.FAORRESU" Name="FAORRESU" DataType="text" SASFieldName="FAORRESU"
                Length="4">
                <Description>
                    <TranslatedText xml:lang="en">Original Units</TranslatedText>
                </Description>
                <CodeListRef CodeListOID="CL.C71620"/>
            </ItemDef>
            <ItemDef OID="IT.FADX.FASTRESC" Name="FASTRESC" DataType="text" SASFieldName="FASTRESC"
                Length="22">
                <Description>
                    <TranslatedText xml:lang="en">Character Result/Finding in Std
                        Format</TranslatedText>
                </Description>
            </ItemDef>
            <ItemDef OID="IT.FADX.FASTRESN" Name="FASTRESN" DataType="integer"
                SASFieldName="FASTRESN" Length="2">
                <Description>
                    <TranslatedText xml:lang="en">Numeric Result/Finding in Standard
                        Units</TranslatedText>
                </Description>
            </ItemDef>
            <ItemDef OID="IT.FADX.FASTRESU" Name="FASTRESU" DataType="text" SASFieldName="FASTRESU"
                Length="4">
                <Description>
                    <TranslatedText xml:lang="en">Standard Units</TranslatedText>
                </Description>
                <CodeListRef CodeListOID="CL.C71620"/>
            </ItemDef>
            <ItemDef OID="IT.FADX.FABLFL" Name="FABLFL" DataType="text" SASFieldName="FABLFL"
                Length="1">
                <Description>
                    <TranslatedText xml:lang="en">Baseline Flag</TranslatedText>
                </Description>
                <CodeListRef CodeListOID="CL.C66742"/>
            </ItemDef>
            <ItemDef OID="IT.FADX.FADTC" Name="FADTC" DataType="datetime" SASFieldName="FADTC"
                def:CommentOID="COM.ISO8601">
                <Description>
                    <TranslatedText xml:lang="en">Date/Time of Collection</TranslatedText>
                </Description>
            </ItemDef>
            <ItemDef OID="IT.FADX.FAEVLINT" Name="FAEVLINT" DataType="text" SASFieldName="FAEVLINT"
                Length="4">
                <Description>
                    <TranslatedText xml:lang="en">Evaluation Interval</TranslatedText>
                </Description>
            </ItemDef>
            <ItemDef OID="IT.FADX.DISINSEX" Name="DISINSEX" DataType="text" SASFieldName="DISINSEX"
                Length="9">
                <Description>
                    <TranslatedText xml:lang="en">Disconnect insulin while
                        exercising</TranslatedText>
                </Description>
                <CodeListRef CodeListOID="CL.FADX.DISINSEX"/>
            </ItemDef>
            <ItemDef OID="IT.FADX.SUSPINS" Name="SUSPINS" DataType="text" SASFieldName="SUSPINS"
                Length="9">
                <Description>
                    <TranslatedText xml:lang="en">Suspend insulin pump when
                        disconnected</TranslatedText>
                </Description>
                <CodeListRef CodeListOID="CL.FADX.SUSPINS"/>
            </ItemDef>
            <ItemDef OID="IT.FAPR.DOMAIN" Name="DOMAIN" DataType="text" SASFieldName="DOMAIN"
                Length="2">
                <Description>
                    <TranslatedText xml:lang="en">Domain Abbreviation</TranslatedText>
                </Description>
                <CodeListRef CodeListOID="CL.DOMAIN.FA"/>
            </ItemDef>
            <ItemDef OID="IT.FAPR.FASEQ" Name="FASEQ" DataType="integer" SASFieldName="FASEQ"
                Length="1">
                <Description>
                    <TranslatedText xml:lang="en">Sequence Number</TranslatedText>
                </Description>
            </ItemDef>
            <ItemDef OID="IT.FAPR.FALNKID" Name="FALNKID" DataType="text" SASFieldName="FALNKID"
                Length="200">
                <Description>
                    <TranslatedText xml:lang="en">Link ID</TranslatedText>
                </Description>
            </ItemDef>
            <ItemDef OID="IT.FAPR.FATESTCD" Name="FATESTCD" DataType="text" SASFieldName="FATESTCD"
                Length="7">
                <Description>
                    <TranslatedText xml:lang="en">Findings About Test Short Name</TranslatedText>
                </Description>
            </ItemDef>
            <ItemDef OID="IT.FAPR.FATEST" Name="FATEST" DataType="text" SASFieldName="FATEST"
                Length="21">
                <Description>
                    <TranslatedText xml:lang="en">Findings About Test Name</TranslatedText>
                </Description>
            </ItemDef>
            <ItemDef OID="IT.FAPR.FAOBJ" Name="FAOBJ" DataType="text" SASFieldName="FAOBJ"
                Length="29">
                <Description>
                    <TranslatedText xml:lang="en">Object of the Observation</TranslatedText>
                </Description>
            </ItemDef>
            <ItemDef OID="IT.FAPR.FACAT" Name="FACAT" DataType="text" SASFieldName="FACAT"
                Length="25">
                <Description>
                    <TranslatedText xml:lang="en">Category for Findings About</TranslatedText>
                </Description>
            </ItemDef>
            <ItemDef OID="IT.FAPR.FAORRES" Name="FAORRES" DataType="float" SASFieldName="FAORRES"
                Length="16" SignificantDigits="8">
                <Description>
                    <TranslatedText xml:lang="en">Result or Finding in Original
                        Units</TranslatedText>
                </Description>
            </ItemDef>
            <ItemDef OID="IT.FAPR.FASTRESC" Name="FASTRESC" DataType="text" SASFieldName="FASTRESC"
                Length="16">
                <Description>
                    <TranslatedText xml:lang="en">Character Result/Finding in Std
                        Format</TranslatedText>
                </Description>
            </ItemDef>
            <ItemDef OID="IT.FAPR.FASTRESN" Name="FASTRESN" DataType="float" SASFieldName="FASTRESN"
                Length="16" SignificantDigits="8">
                <Description>
                    <TranslatedText xml:lang="en">Numeric Result/Finding in Standard
                        Units</TranslatedText>
                </Description>
            </ItemDef>
            <ItemDef OID="IT.FAPR.FADTC" Name="FADTC" DataType="datetime" SASFieldName="FADTC"
                def:CommentOID="COM.ISO8601">
                <Description>
                    <TranslatedText xml:lang="en">Date/Time of Collection</TranslatedText>
                </Description>
            </ItemDef>
            <ItemDef OID="IT.FAPR.FAENDTC" Name="FAENDTC" DataType="datetime" SASFieldName="FAENDTC"
                def:CommentOID="COM.ISO8601">
                <Description>
                    <TranslatedText xml:lang="en">End Date/Time of Collection</TranslatedText>
                </Description>
            </ItemDef>
            <ItemDef OID="IT.FACM.DOMAIN" Name="DOMAIN" DataType="text" SASFieldName="DOMAIN"
                Length="2">
                <Description>
                    <TranslatedText xml:lang="en">Domain Abbreviation</TranslatedText>
                </Description>
                <CodeListRef CodeListOID="CL.DOMAIN.FA"/>
            </ItemDef>
            <ItemDef OID="IT.FACM.FASEQ" Name="FASEQ" DataType="integer" SASFieldName="FASEQ"
                Length="1">
                <Description>
                    <TranslatedText xml:lang="en">Sequence Number</TranslatedText>
                </Description>
            </ItemDef>
            <ItemDef OID="IT.FACM.FALNKID" Name="FALNKID" DataType="text" SASFieldName="FALNKID"
                Length="100">
                <Description>
                    <TranslatedText xml:lang="en">Link ID</TranslatedText>
                </Description>
            </ItemDef>
            <ItemDef OID="IT.FACM.FATESTCD" Name="FATESTCD" DataType="text" SASFieldName="FATESTCD"
                Length="200">
                <Description>
                    <TranslatedText xml:lang="en">Findings About Test Short Name</TranslatedText>
                </Description>
            </ItemDef>
            <ItemDef OID="IT.FACM.FATEST" Name="FATEST" DataType="text" SASFieldName="FATEST"
                Length="15">
                <Description>
                    <TranslatedText xml:lang="en">Findings About Test Name</TranslatedText>
                </Description>
            </ItemDef>
            <ItemDef OID="IT.FACM.FAOBJ" Name="FAOBJ" DataType="text" SASFieldName="FAOBJ"
                Length="7">
                <Description>
                    <TranslatedText xml:lang="en">Object of the Observation</TranslatedText>
                </Description>
            </ItemDef>
            <ItemDef OID="IT.FACM.FACAT" Name="FACAT" DataType="text" SASFieldName="FACAT"
                Length="5">
                <Description>
                    <TranslatedText xml:lang="en">Category for Findings About</TranslatedText>
                </Description>
            </ItemDef>
            <ItemDef OID="IT.FACM.FAORRES" Name="FAORRES" DataType="text" SASFieldName="FAORRES"
                Length="7">
                <Description>
                    <TranslatedText xml:lang="en">Result or Finding in Original
                        Units</TranslatedText>
                </Description>
            </ItemDef>
            <ItemDef OID="IT.FACM.FAORRESU" Name="FAORRESU" DataType="text" SASFieldName="FAORRESU"
                Length="1">
                <Description>
                    <TranslatedText xml:lang="en">Original Units</TranslatedText>
                </Description>
                <CodeListRef CodeListOID="CL.C71620"/>
            </ItemDef>
            <ItemDef OID="IT.FACM.FASTRESC" Name="FASTRESC" DataType="text" SASFieldName="FASTRESC"
                Length="7">
                <Description>
                    <TranslatedText xml:lang="en">Character Result/Finding in Std
                        Format</TranslatedText>
                </Description>
            </ItemDef>
            <ItemDef OID="IT.FACM.FASTRESN" Name="FASTRESN" DataType="float" SASFieldName="FASTRESN"
                Length="5" SignificantDigits="3">
                <Description>
                    <TranslatedText xml:lang="en">Numeric Result/Finding in Standard
                        Units</TranslatedText>
                </Description>
            </ItemDef>
            <ItemDef OID="IT.FACM.FASTRESU" Name="FASTRESU" DataType="text" SASFieldName="FASTRESU"
                Length="1">
                <Description>
                    <TranslatedText xml:lang="en">Standard Units</TranslatedText>
                </Description>
                <CodeListRef CodeListOID="CL.C71620"/>
            </ItemDef>
            <ItemDef OID="IT.FACM.FADTC" Name="FADTC" DataType="datetime" SASFieldName="FADTC"
                def:CommentOID="COM.ISO8601">
                <Description>
                    <TranslatedText xml:lang="en">Date/Time of Collection</TranslatedText>
                </Description>
            </ItemDef>
            <ItemDef OID="IT.FACM.FADUR" Name="FADUR" DataType="text" SASFieldName="FADUR"
                Length="8" def:CommentOID="COM.ISO8601">
                <Description>
                    <TranslatedText xml:lang="en">Collected duration of finding. </TranslatedText>
                </Description>
            </ItemDef>
            <ItemDef OID="IT.FACM.INSDVSRC" Name="INSDVSRC" DataType="text" SASFieldName="INSDVSRC"
                Length="10">
                <Description>
                    <TranslatedText xml:lang="en">Insulin device Source</TranslatedText>
                </Description>
            </ItemDef>
            <ItemDef OID="IT.FACM.INSSTYPE" Name="INSSTYPE" DataType="text" SASFieldName="INSSTYPE"
                Length="26">
                <Description>
                    <TranslatedText xml:lang="en">Insulin subtype</TranslatedText>
                </Description>
            </ItemDef>
            <ItemDef OID="IT.FACM.INSNMBOL" Name="INSNMBOL" DataType="float" SASFieldName="INSNMBOL"
                Length="6" SignificantDigits="3">
                <Description>
                    <TranslatedText xml:lang="en">Total amount of normal bolus</TranslatedText>
                </Description>
            </ItemDef>
            <ItemDef OID="IT.FACM.INSEXBOL" Name="INSEXBOL" DataType="float" SASFieldName="INSEXBOL"
                Length="6" SignificantDigits="3">
                <Description>
                    <TranslatedText xml:lang="en">Total amount of extended bolus</TranslatedText>
                </Description>
            </ItemDef>
            <ItemDef OID="IT.LB.DOMAIN" Name="DOMAIN" DataType="text" SASFieldName="DOMAIN"
                Length="2">
                <Description>
                    <TranslatedText xml:lang="en">Domain Abbreviation</TranslatedText>
                </Description>
                <CodeListRef CodeListOID="CL.DOMAIN.LB"/>
            </ItemDef>
            <ItemDef OID="IT.LB.LBSEQ" Name="LBSEQ" DataType="integer" SASFieldName="LBSEQ"
                Length="1">
                <Description>
                    <TranslatedText xml:lang="en">Sequence Number</TranslatedText>
                </Description>
            </ItemDef>
            <ItemDef OID="IT.LB.LBTESTCD" Name="LBTESTCD" DataType="text" SASFieldName="LBTESTCD"
                Length="5">
                <Description>
                    <TranslatedText xml:lang="en">Lab Test or Examination Short
                        Name.</TranslatedText>
                </Description>
                <CodeListRef CodeListOID="CL.C65047"/>
            </ItemDef>
            <ItemDef OID="IT.LB.LBTEST" Name="LBTEST" DataType="text" SASFieldName="LBTEST"
                Length="14">
                <Description>
                    <TranslatedText xml:lang="en">Lab Test or Examination Name</TranslatedText>
                </Description>
                <CodeListRef CodeListOID="CL.C67154"/>
            </ItemDef>
            <ItemDef OID="IT.LB.LBCAT" Name="LBCAT" DataType="text" SASFieldName="LBCAT" Length="16">
                <Description>
                    <TranslatedText xml:lang="en">Category for Lab Test</TranslatedText>
                </Description>
            </ItemDef>
            <ItemDef OID="IT.LB.LBORRES" Name="LBORRES" DataType="text" SASFieldName="LBORRES"
                Length="5">
                <Description>
                    <TranslatedText xml:lang="en">Result or Finding in Original
                        Units</TranslatedText>
                </Description>
                <def:ValueListRef ValueListOID="VL.LB.LBORRES"/>
            </ItemDef>
            <ItemDef OID="IT.LB.LBORRESU" Name="LBORRESU" DataType="text" SASFieldName="LBORRESU"
                Length="1">
                <Description>
                    <TranslatedText xml:lang="en">Original Units</TranslatedText>
                </Description>
                <CodeListRef CodeListOID="CL.C71620"/>
            </ItemDef>
            <ItemDef OID="IT.LB.LBSTRESC" Name="LBSTRESC" DataType="text" SASFieldName="LBSTRESC"
                Length="5">
                <Description>
                    <TranslatedText xml:lang="en">Character Result/Finding in Std
                        Format</TranslatedText>
                </Description>
            </ItemDef>
            <ItemDef OID="IT.LB.LBSTRESN" Name="LBSTRESN" DataType="integer" SASFieldName="LBSTRESN"
                Length="5">
                <Description>
                    <TranslatedText xml:lang="en">Numeric Result/Finding in Standard
                        Units</TranslatedText>
                </Description>
            </ItemDef>
            <ItemDef OID="IT.LB.LBSTRESU" Name="LBSTRESU" DataType="text" SASFieldName="LBSTRESU"
                Length="1">
                <Description>
                    <TranslatedText xml:lang="en">Standard Units</TranslatedText>
                </Description>
                <CodeListRef CodeListOID="CL.C71620"/>
            </ItemDef>
            <ItemDef OID="IT.LB.LBDTC" Name="LBDTC" DataType="datetime" SASFieldName="LBDTC">
                <Description>
                    <TranslatedText xml:lang="en">Date/Time of Specimen Collection</TranslatedText>
                </Description>
            </ItemDef>
            <ItemDef OID="IT.LB.LBSOURCE" Name="LBSOURCE" DataType="text" SASFieldName="LBSOURCE"
                Length="200">
                <Description>
                    <TranslatedText xml:lang="en">Source of Data</TranslatedText>
                </Description>
            </ItemDef>
            <ItemDef OID="IT.LB.LBCRNORD" Name="LBCRNORD" DataType="text" SASFieldName="LBCRNORD"
                Length="200">
                <Description>
                    <TranslatedText xml:lang="en">Chronological Order</TranslatedText>
                </Description>
            </ItemDef>
            <ItemDef OID="IT.LB.LBSETTING" Name="LBSETTIN" DataType="text" SASFieldName="LBSETTIN"
                Length="200">
                <Description>
                    <TranslatedText xml:lang="en">Event Setting</TranslatedText>
                </Description>
            </ItemDef>
            <ItemDef OID="IT.LB.LBTMINT" Name="LBTMINT" DataType="text" SASFieldName="LBTMINT"
                Length="50">
                <Description>
                    <TranslatedText xml:lang="en">Time Interval</TranslatedText>
                </Description>
                <CodeListRef CodeListOID="CL.LB.LBTMINT"/>
            </ItemDef>
            <ItemDef OID="IT.ML.DOMAIN" Name="DOMAIN" DataType="text" SASFieldName="DOMAIN"
                Length="2">
                <Description>
                    <TranslatedText xml:lang="en">Domain Abbreviation</TranslatedText>
                </Description>
                <CodeListRef CodeListOID="CL.DOMAIN.ML"/>
            </ItemDef>
            <ItemDef OID="IT.ML.MLSEQ" Name="MLSEQ" DataType="integer" SASFieldName="MLSEQ"
                Length="5">
                <Description>
                    <TranslatedText xml:lang="en">Sequence Number</TranslatedText>
                </Description>
            </ItemDef>
            <ItemDef OID="IT.ML.MLLNKID" Name="MLLNKID" DataType="text" SASFieldName="MLLNKID"
                Length="100">
                <Description>
                    <TranslatedText xml:lang="en">Link ID</TranslatedText>
                </Description>
            </ItemDef>
            <ItemDef OID="IT.ML.MLGRPID" Name="MLGRPID" DataType="text" SASFieldName="MLGRPID"
                Length="1">
                <Description>
                    <TranslatedText xml:lang="en">Group ID</TranslatedText>
                </Description>
            </ItemDef>
            <ItemDef OID="IT.ML.MLTRT" Name="MLTRT" DataType="text" SASFieldName="MLTRT"
                Length="124">
                <Description>
                    <TranslatedText xml:lang="en">Name of Meal</TranslatedText>
                </Description>
            </ItemDef>
            <ItemDef OID="IT.ML.MLCAT" Name="MLCAT" DataType="text" SASFieldName="MLCAT" Length="23">
                <Description>
                    <TranslatedText xml:lang="en">Category for Meal</TranslatedText>
                </Description>
            </ItemDef>
            <ItemDef OID="IT.ML.MLDOSE" Name="MLDOSE" DataType="integer" SASFieldName="MLDOSE"
                Length="8">
                <Description>
                    <TranslatedText xml:lang="en">Dose</TranslatedText>
                </Description>
            </ItemDef>
            <ItemDef OID="IT.ML.MLDOSTOT" Name="MLDOSTOT" DataType="integer" SASFieldName="MLDOSTOT"
                Length="8">
                <Description>
                    <TranslatedText xml:lang="en">Total Daily Dose</TranslatedText>
                </Description>
            </ItemDef>
            <ItemDef OID="IT.ML.MLDOSU" Name="MLDOSU" DataType="text" SASFieldName="MLDOSU"
                Length="1">
                <Description>
                    <TranslatedText xml:lang="en">Dose Units</TranslatedText>
                </Description>
                <CodeListRef CodeListOID="CL.C71620"/>
            </ItemDef>
            <ItemDef OID="IT.ML.MLDOSFRQ" Name="MLDOSFRQ" DataType="text" SASFieldName="MLDOSFRQ"
                Length="2">
                <Description>
                    <TranslatedText xml:lang="en">Dosing Frequency per Interval</TranslatedText>
                </Description>
                <CodeListRef CodeListOID="CL.C71113"/>
            </ItemDef>
            <ItemDef OID="IT.ML.MLDTC" Name="MLDTC" DataType="datetime" SASFieldName="MLDTC"
                def:CommentOID="COM.ISO8601">
                <Description>
                    <TranslatedText xml:lang="en">Date/Time of Collection</TranslatedText>
                </Description>
            </ItemDef>
            <ItemDef OID="IT.ML.MLSVGNUM" Name="MLSVGNUM" DataType="integer" SASFieldName="MLSVGNUM"
                Length="8">
                <Description>
                    <TranslatedText xml:lang="en">Number of Servings</TranslatedText>
                </Description>
            </ItemDef>
            <ItemDef OID="IT.ML.MLDECDCD" Name="MLDECDCD" DataType="integer" SASFieldName="MLDECDCD"
                Length="8">
                <Description>
                    <TranslatedText xml:lang="en">Decode Code</TranslatedText>
                </Description>
            </ItemDef>
            <ItemDef OID="IT.ML.MLDNAMVR" Name="MLDNAMVR" DataType="text" SASFieldName="MLDNAMVR"
                Length="15">
                <Description>
                    <TranslatedText xml:lang="en">Dictionary Name and Version</TranslatedText>
                </Description>
            </ItemDef>
            <ItemDef OID="IT.RELREC.RDOMAIN" Name="RDOMAIN" DataType="text" SASFieldName="RDOMAIN"
                Length="10">
                <Description>
                    <TranslatedText xml:lang="en">Related Domain Abbreviation</TranslatedText>
                </Description>
                <CodeListRef CodeListOID="CL.DOMAIN.RELREC"/>
            </ItemDef>
            <ItemDef OID="IT.RELREC.IDVAR" Name="IDVAR" DataType="text" SASFieldName="IDVAR"
                Length="100">
                <Description>
                    <TranslatedText xml:lang="en">Identifying Variable</TranslatedText>
                </Description>
            </ItemDef>
            <ItemDef OID="IT.RELREC.IDVARVAL" Name="IDVARVAL" DataType="text"
                SASFieldName="IDVARVAL" Length="50">
                <Description>
                    <TranslatedText xml:lang="en">Identifying Variable Value</TranslatedText>
                </Description>
            </ItemDef>
            <ItemDef OID="IT.RELREC.RELTYPE" Name="RELTYPE" DataType="text" SASFieldName="RELTYPE"
                Length="4">
                <Description>
                    <TranslatedText xml:lang="en">Relationship Type</TranslatedText>
                </Description>
                <CodeListRef CodeListOID="CL.RELTYPE"/>
            </ItemDef>
            <ItemDef OID="IT.RELREC.RELID" Name="RELID" DataType="text" SASFieldName="RELID"
                Length="1">
                <Description>
                    <TranslatedText xml:lang="en">Relationship Identifier</TranslatedText>
                </Description>
            </ItemDef>
            <ItemDef OID="IT.PR.DOMAIN" Name="DOMAIN" DataType="text" SASFieldName="DOMAIN"
                Length="2">
                <Description>
                    <TranslatedText xml:lang="en">Domain Abbreviation</TranslatedText>
                </Description>
                <CodeListRef CodeListOID="CL.DOMAIN.PR"/>
            </ItemDef>
            <ItemDef OID="IT.PR.PRSEQ" Name="PRSEQ" DataType="integer" SASFieldName="PRSEQ"
                Length="4">
                <Description>
                    <TranslatedText xml:lang="en">Sequence Number</TranslatedText>
                </Description>
            </ItemDef>
            <ItemDef OID="IT.PR.PRLNKID" Name="PRLNKID" DataType="text" SASFieldName="PRLNKID"
                Length="10">
                <Description>
                    <TranslatedText xml:lang="en">Link ID</TranslatedText>
                </Description>
            </ItemDef>
            <ItemDef OID="IT.PR.PRTRT" Name="PRTRT" DataType="text" SASFieldName="PRTRT" Length="39">
                <Description>
                    <TranslatedText xml:lang="en">Reported Name of Procedure</TranslatedText>
                </Description>
            </ItemDef>
            <ItemDef OID="IT.PR.PRCAT" Name="PRCAT" DataType="text" SASFieldName="PRCAT" Length="50">
                <Description>
                    <TranslatedText xml:lang="en">Category</TranslatedText>
                </Description>
            </ItemDef>
            <ItemDef OID="IT.PR.PRSCAT" Name="PRSCAT" DataType="text" SASFieldName="PRSCAT"
                Length="57">
                <Description>
                    <TranslatedText xml:lang="en">Subcategory</TranslatedText>
                </Description>
            </ItemDef>
            <ItemDef OID="IT.PR.PRSTDTC" Name="PRSTDTC" DataType="datetime" SASFieldName="PRSTDTC">
                <Description>
                    <TranslatedText xml:lang="en">Start Date/Time of Procedure</TranslatedText>
                </Description>
            </ItemDef>
            <ItemDef OID="IT.PR.PRTRTC" Name="PRTRTC" DataType="text" SASFieldName="PRTRTC"
                Length="63">
                <Description>
                    <TranslatedText xml:lang="en">Participant reported activity /PRTRT as
                        collected</TranslatedText>
                </Description>
            </ItemDef>
            <ItemDef OID="IT.PR.PLNEXDUR" Name="PLNEXDUR" DataType="text" SASFieldName="PLNEXDUR"
                Length="3">
                <Description>
                    <TranslatedText xml:lang="en">Participant reported activity duration in
                        minutes</TranslatedText>
                </Description>
            </ItemDef>
            <ItemDef OID="IT.PR.EXCINTSY" Name="EXCINTSY" DataType="text" SASFieldName="EXCINTSY"
                Length="7">
                <Description>
                    <TranslatedText xml:lang="en">Participant reported activity intensity
                        level</TranslatedText>
                </Description>
            </ItemDef>
            <ItemDef OID="IT.PR.HRSLSTML" Name="HRSLSTML" DataType="text" SASFieldName="HRSLSTML"
                Length="9">
                <Description>
                    <TranslatedText xml:lang="en">Participant reported hours since last meal prior
                        to start of exercise</TranslatedText>
                </Description>
            </ItemDef>
            <ItemDef OID="IT.PR.EXCOMP" Name="EXCOMP" DataType="text" SASFieldName="EXCOMP"
                Length="3">
                <Description>
                    <TranslatedText xml:lang="en">Participant reported if activity was competitive
                        or not</TranslatedText>
                </Description>
            </ItemDef>
            <ItemDef OID="IT.PR.SNKBEFEX" Name="SNKBEFEX" DataType="text" SASFieldName="SNKBEFEX"
                Length="3">
                <Description>
                    <TranslatedText xml:lang="en">Participant reported if snack was eaten before the
                        activity</TranslatedText>
                </Description>
            </ItemDef>
            <ItemDef OID="IT.PR.INUSDTDY" Name="INUSDTDY" DataType="text" SASFieldName="INUSDTDY"
                Length="3">
                <Description>
                    <TranslatedText xml:lang="en">Participant reported if inhaler had been used at
                        any time during the day prior to the activity</TranslatedText>
                </Description>
            </ItemDef>
            <ItemDef OID="IT.PR.BETAGTDY" Name="BETAGTDY" DataType="text" SASFieldName="BETAGTDY"
                Length="3">
                <Description>
                    <TranslatedText xml:lang="en">Participant reported if oral beta agonist had been
                        used at any time during the day prior to the activity</TranslatedText>
                </Description>
            </ItemDef>
            <ItemDef OID="IT.PR.RESQCARB" Name="RESQCARB" DataType="text" SASFieldName="RESQCARB"
                Length="3">
                <Description>
                    <TranslatedText xml:lang="en">Participant reported if they used rescue carbs
                        during the activity</TranslatedText>
                </Description>
            </ItemDef>
            <ItemDef OID="IT.RP.DOMAIN" Name="DOMAIN" DataType="text" SASFieldName="DOMAIN"
                Length="2">
                <Description>
                    <TranslatedText xml:lang="en">Domain Abbreviation</TranslatedText>
                </Description>
                <CodeListRef CodeListOID="CL.DOMAIN.RP"/>
            </ItemDef>
            <ItemDef OID="IT.RP.RPTESTCD" Name="RPTESTCD" DataType="text" SASFieldName="RPTESTCD"
                Length="8">
                <Description>
                    <TranslatedText xml:lang="en">Short Name of Reproductive Test</TranslatedText>
                </Description>
            </ItemDef>
            <ItemDef OID="IT.RP.RPTEST" Name="RPTEST" DataType="text" SASFieldName="RPTEST"
                Length="40">
                <Description>
                    <TranslatedText xml:lang="en">Name of Reproductive Test</TranslatedText>
                </Description>
            </ItemDef>
            <ItemDef OID="IT.RP.RPORRES" Name="RPORRES" DataType="datetime" SASFieldName="RPORRES">
                <Description>
                    <TranslatedText xml:lang="en">Result or Finding in Original
                        Units</TranslatedText>
                </Description>
            </ItemDef>
            <ItemDef OID="IT.RP.RPSTRESC" Name="RPSTRESC" DataType="datetime"
                SASFieldName="RPSTRESC">
                <Description>
                    <TranslatedText xml:lang="en">Character Result/Finding in Std
                        Format</TranslatedText>
                </Description>
            </ItemDef>
            <ItemDef OID="IT.RP.RPDTC" Name="RPDTC" DataType="datetime" SASFieldName="RPDTC">
                <Description>
                    <TranslatedText xml:lang="en">Date/Time of Collection</TranslatedText>
                </Description>
            </ItemDef>
            <ItemDef OID="IT.SUPPDM.RDOMAIN" Name="RDOMAIN" DataType="text" SASFieldName="RDOMAIN"
                Length="2">
                <Description>
                    <TranslatedText xml:lang="en">Related Domain Abbreviation</TranslatedText>
                </Description>
                <CodeListRef CodeListOID="CL.DOMAIN.DM"/>
            </ItemDef>
            <ItemDef OID="IT.SUPPDM.IDVAR" Name="IDVAR" DataType="text" SASFieldName="IDVAR"
                Length="200">
                <Description>
                    <TranslatedText xml:lang="en">Identifying Variable</TranslatedText>
                </Description>
            </ItemDef>
            <ItemDef OID="IT.SUPPDM.IDVARVAL" Name="IDVARVAL" DataType="text"
                SASFieldName="IDVARVAL" Length="200">
                <Description>
                    <TranslatedText xml:lang="en">Identifying Variable Value</TranslatedText>
                </Description>
            </ItemDef>
            <ItemDef OID="IT.SUPPDM.QNAM" Name="QNAM" DataType="text" SASFieldName="QNAM" Length="6">
                <Description>
                    <TranslatedText xml:lang="en">Qualifier Variable Name</TranslatedText>
                </Description>
            </ItemDef>
            <ItemDef OID="IT.SUPPDM.QLABEL" Name="QLABEL" DataType="text" SASFieldName="QLABEL"
                Length="16">
                <Description>
                    <TranslatedText xml:lang="en">Qualifier Variable Label</TranslatedText>
                </Description>
            </ItemDef>
            <ItemDef OID="IT.SUPPDM.QVAL" Name="QVAL" DataType="text" SASFieldName="QVAL"
                Length="22">
                <Description>
                    <TranslatedText xml:lang="en">Data Value</TranslatedText>
                </Description>
            </ItemDef>
            <ItemDef OID="IT.SUPPDM.QORIG" Name="QORIG" DataType="text" SASFieldName="QORIG"
                Length="3">
                <Description>
                    <TranslatedText xml:lang="en">Origin</TranslatedText>
                </Description>
            </ItemDef>
            <ItemDef OID="IT.SUPPDM.QEVAL" Name="QEVAL" DataType="text" SASFieldName="QEVAL"
                Length="200">
                <Description>
                    <TranslatedText xml:lang="en">Evaluator</TranslatedText>
                </Description>
            </ItemDef>
            <ItemDef OID="IT.QS.DOMAIN" Name="DOMAIN" DataType="text" SASFieldName="DOMAIN"
                Length="2">
                <Description>
                    <TranslatedText xml:lang="en">Domain Abbreviation</TranslatedText>
                </Description>
                <CodeListRef CodeListOID="CL.DOMAIN.QS"/>
            </ItemDef>
            <ItemDef OID="IT.QS.QSSEQ" Name="QSSEQ" DataType="integer" SASFieldName="QSSEQ"
                Length="2">
                <Description>
                    <TranslatedText xml:lang="en">Sequence Number</TranslatedText>
                </Description>
            </ItemDef>
            <ItemDef OID="IT.QS.QSTESTCD" Name="QSTESTCD" DataType="text" SASFieldName="QSTESTCD"
                Length="8">
                <Description>
                    <TranslatedText xml:lang="en">Question Short Name</TranslatedText>
                </Description>
                <def:ValueListRef ValueListOID="VL.QS.TESTCD"/>
            </ItemDef>
            <ItemDef OID="IT.QS.QSTEST" Name="QSTEST" DataType="text" SASFieldName="QSTEST"
                Length="40">
                <Description>
                    <TranslatedText xml:lang="en">Question Name</TranslatedText>
                </Description>
                <def:ValueListRef ValueListOID="VL.QS.TEST"/>
            </ItemDef>
            <ItemDef OID="IT.QS.QSCAT" Name="QSCAT" DataType="text" SASFieldName="QSCAT" Length="55">
                <Description>
                    <TranslatedText xml:lang="en">Category of Question</TranslatedText>
                </Description>
            </ItemDef>
            <ItemDef OID="IT.QS.QSORRES" Name="QSORRES" DataType="text" SASFieldName="QSORRES"
                Length="55">
                <Description>
                    <TranslatedText xml:lang="en">Finding in Original Units</TranslatedText>
                </Description>
            </ItemDef>
            <ItemDef OID="IT.QS.QSORRESU" Name="QSORRESU" DataType="text" SASFieldName="QSORRESU"
                Length="7">
                <Description>
                    <TranslatedText xml:lang="en">Original Units</TranslatedText>
                </Description>
                <CodeListRef CodeListOID="CL.C71620"/>
            </ItemDef>
            <ItemDef OID="IT.QS.QSSTRESC" Name="QSSTRESC" DataType="text" SASFieldName="QSSTRESC"
                Length="55">
                <Description>
                    <TranslatedText xml:lang="en">Character Result/Finding in Std
                        Format</TranslatedText>
                </Description>
            </ItemDef>
            <ItemDef OID="IT.QS.QSSTRESN" Name="QSSTRESN" DataType="integer" SASFieldName="QSSTRESN"
                Length="1">
                <Description>
                    <TranslatedText xml:lang="en">Numeric Finding in Standard Units</TranslatedText>
                </Description>
            </ItemDef>
            <ItemDef OID="IT.QS.QSSTRESU" Name="QSSTRESU" DataType="text" SASFieldName="QSSTRESU"
                Length="7">
                <Description>
                    <TranslatedText xml:lang="en">Standard Units</TranslatedText>
                </Description>
            </ItemDef>
            <ItemDef OID="IT.QS.QSDTC" Name="QSDTC" DataType="datetime" SASFieldName="QSDTC">
                <Description>
                    <TranslatedText xml:lang="en">Date/Time of Finding</TranslatedText>
                </Description>
            </ItemDef>
            <ItemDef OID="IT.SC.DOMAIN" Name="DOMAIN" DataType="text" SASFieldName="DOMAIN"
                Length="2">
                <Description>
                    <TranslatedText xml:lang="en">Domain Abbreviation</TranslatedText>
                </Description>
                <CodeListRef CodeListOID="CL.DOMAIN.SC"/>
            </ItemDef>
            <ItemDef OID="IT.SC.SCSEQ" Name="SCSEQ" DataType="integer" SASFieldName="SCSEQ"
                Length="2">
                <Description>
                    <TranslatedText xml:lang="en">Sequence Number</TranslatedText>
                </Description>
            </ItemDef>
            <ItemDef OID="IT.SC.SCTESTCD" Name="SCTESTCD" DataType="text" SASFieldName="SCTESTCD"
                Length="8">
                <Description>
                    <TranslatedText xml:lang="en">Subject Characteristic Short Name</TranslatedText>
                </Description>
                <CodeListRef CodeListOID="CL.C74559"/>
            </ItemDef>
            <ItemDef OID="IT.SC.SCTEST" Name="SCTEST" DataType="text" SASFieldName="SCTEST"
                Length="16">
                <Description>
                    <TranslatedText xml:lang="en">Subject Characteristic</TranslatedText>
                </Description>
                <CodeListRef CodeListOID="CL.C103330"/>
            </ItemDef>
            <ItemDef OID="IT.SC.SCORRES" Name="SCORRES" DataType="text" SASFieldName="SCORRES"
                Length="80">
                <Description>
                    <TranslatedText xml:lang="en">Result or Finding in Original
                        Units</TranslatedText>
                </Description>
                <def:ValueListRef ValueListOID="VL.SC.SCORRES"/>
            </ItemDef>
            <ItemDef OID="IT.SC.SCSTRESC" Name="SCSTRESC" DataType="text" SASFieldName="SCSTRESC"
                Length="80">
                <Description>
                    <TranslatedText xml:lang="en">Character Result/Finding in Std
                        Format</TranslatedText>
                </Description>
            </ItemDef>
            <ItemDef OID="IT.SC.SCDTC" Name="SCDTC" DataType="datetime" SASFieldName="SCDTC"
                def:CommentOID="COM.ISO8601">
                <Description>
                    <TranslatedText xml:lang="en">Date/Time of Collection</TranslatedText>
                </Description>
            </ItemDef>
            <ItemDef OID="IT.VS.DOMAIN" Name="DOMAIN" DataType="text" SASFieldName="DOMAIN"
                Length="2">
                <Description>
                    <TranslatedText xml:lang="en">Domain Abbreviation</TranslatedText>
                </Description>
                <CodeListRef CodeListOID="CL.DOMAIN.VS"/>
            </ItemDef>
            <ItemDef OID="IT.VS.VSSEQ" Name="VSSEQ" DataType="integer" SASFieldName="VSSEQ"
                Length="4">
                <Description>
                    <TranslatedText xml:lang="en">Sequence Number</TranslatedText>
                </Description>
            </ItemDef>
            <ItemDef OID="IT.VS.VSGRPID" Name="VSGRPID" DataType="text" SASFieldName="VSGRPID"
                Length="8">
                <Description>
                    <TranslatedText xml:lang="en">Group ID</TranslatedText>
                </Description>
            </ItemDef>
            <ItemDef OID="IT.VS.VSTESTCD" Name="VSTESTCD" DataType="text" SASFieldName="VSTESTCD"
                Length="5">
                <Description>
                    <TranslatedText xml:lang="en">Vital Signs Test Short Name</TranslatedText>
                </Description>
                <CodeListRef CodeListOID="CL.C66741"/>
            </ItemDef>
            <ItemDef OID="IT.VS.VSTEST" Name="VSTEST" DataType="text" SASFieldName="VSTEST"
                Length="8">
                <Description>
                    <TranslatedText xml:lang="en">Vital Signs Test Name</TranslatedText>
                </Description>
                <CodeListRef CodeListOID="CL.C67153"/>
            </ItemDef>
            <ItemDef OID="IT.VS.VSCAT" Name="VSCAT" DataType="text" SASFieldName="VSCAT" Length="17">
                <Description>
                    <TranslatedText xml:lang="en">Category for Vital Signs</TranslatedText>
                </Description>
            </ItemDef>
            <ItemDef OID="IT.VS.VSSCAT" Name="VSSCAT" DataType="text" SASFieldName="VSSCAT"
                Length="27">
                <Description>
                    <TranslatedText xml:lang="en">Subcategory for Vital Signs</TranslatedText>
                </Description>
            </ItemDef>
            <ItemDef OID="IT.VS.VSORRES" Name="VSORRES" DataType="text" SASFieldName="VSORRES"
                Length="12">
                <Description>
                    <TranslatedText xml:lang="en">Result or Finding in Original
                        Units</TranslatedText>
                </Description>
            </ItemDef>
            <ItemDef OID="IT.VS.VSORRESU" Name="VSORRESU" DataType="text" SASFieldName="VSORRESU"
                Length="9">
                <Description>
                    <TranslatedText xml:lang="en">Original Units</TranslatedText>
                </Description>
                <CodeListRef CodeListOID="CL.C66770"/>
            </ItemDef>
            <ItemDef OID="IT.VS.VSSTRESC" Name="VSSTRESC" DataType="text" SASFieldName="VSSTRESC"
                Length="12">
                <Description>
                    <TranslatedText xml:lang="en">Character Result/Finding in Std
                        Format</TranslatedText>
                </Description>
            </ItemDef>
            <ItemDef OID="IT.VS.VSSTRESN" Name="VSSTRESN" DataType="integer" SASFieldName="VSSTRESN"
                Length="12">
                <Description>
                    <TranslatedText xml:lang="en">Numeric Result/Finding in Standard
                        Units</TranslatedText>
                </Description>
            </ItemDef>
            <ItemDef OID="IT.VS.VSSTRESU" Name="VSSTRESU" DataType="text" SASFieldName="VSSTRESU"
                Length="9">
                <Description>
                    <TranslatedText xml:lang="en">Standard Units</TranslatedText>
                </Description>
                <CodeListRef CodeListOID="CL.C66770"/>
            </ItemDef>
            <ItemDef OID="IT.VS.VSDTC" Name="VSDTC" DataType="datetime" SASFieldName="VSDTC"
                def:CommentOID="COM.ISO8601">
                <Description>
                    <TranslatedText xml:lang="en">Date/Time of Measurements</TranslatedText>
                </Description>
            </ItemDef>
            <ItemDef OID="IT.VS.VSENDTC" Name="VSENDTC" DataType="datetime" SASFieldName="VSENDTC"
                def:CommentOID="COM.ISO8601">
                <Description>
                    <TranslatedText xml:lang="en">End Date/Time of Observation</TranslatedText>
                </Description>
            </ItemDef>
            <ItemDef OID="IT.NV.DOMAIN" Name="DOMAIN" DataType="text" SASFieldName="DOMAIN"
                Length="2">
                <Description>
                    <TranslatedText xml:lang="en">Domain Abbreviation</TranslatedText>
                </Description>
                <CodeListRef CodeListOID="CL.DOMAIN.NV"/>
            </ItemDef>
            <ItemDef OID="IT.NV.NVSEQ" Name="NVSEQ" DataType="integer" SASFieldName="NVSEQ"
                Length="3">
                <Description>
                    <TranslatedText xml:lang="en">Sequence Number</TranslatedText>
                </Description>
            </ItemDef>
            <ItemDef OID="IT.NV.NVLNKID" Name="NVLNKID" DataType="text" SASFieldName="NVLNKID"
                Length="20">
                <Description>
                    <TranslatedText xml:lang="en">Link ID</TranslatedText>
                </Description>
            </ItemDef>
            <ItemDef OID="IT.NV.NVTESTCD" Name="NVTESTCD" DataType="text" SASFieldName="NVTESTCD"
                Length="8">
                <Description>
                    <TranslatedText xml:lang="en">Short Name of Nervous System Test</TranslatedText>
                </Description>
            </ItemDef>
            <ItemDef OID="IT.NV.NVTEST" Name="NVTEST" DataType="text" SASFieldName="NVTEST"
                Length="20">
                <Description>
                    <TranslatedText xml:lang="en">Name of Nervous System Test</TranslatedText>
                </Description>
            </ItemDef>
            <ItemDef OID="IT.NV.NVCAT" Name="NVCAT" DataType="text" SASFieldName="NVCAT" Length="12">
                <Description>
                    <TranslatedText xml:lang="en">Category for Nervous System Test</TranslatedText>
                </Description>
            </ItemDef>
            <ItemDef OID="IT.NV.NVORRES" Name="NVORRES" DataType="text" SASFieldName="NVORRES"
                Length="15">
                <Description>
                    <TranslatedText xml:lang="en">Result or Finding in Original
                        Units</TranslatedText>
                </Description>
            </ItemDef>
            <ItemDef OID="IT.NV.NVORRESU" Name="NVORRESU" DataType="text" SASFieldName="NVORRESU"
                Length="4">
                <Description>
                    <TranslatedText xml:lang="en">Original Units</TranslatedText>
                </Description>
            </ItemDef>
            <ItemDef OID="IT.NV.NVSTRESC" Name="NVSTRESC" DataType="text" SASFieldName="NVSTRESC"
                Length="15">
                <Description>
                    <TranslatedText xml:lang="en">Character Result/Finding in Std
                        Format</TranslatedText>
                </Description>
            </ItemDef>
            <ItemDef OID="IT.NV.NVSTRESN" Name="NVSTRESN" DataType="text" SASFieldName="NVSTRESN"
                Length="15">
                <Description>
                    <TranslatedText xml:lang="en">Numeric Result/Finding in Standard
                        Units</TranslatedText>
                </Description>
            </ItemDef>
            <ItemDef OID="IT.NV.NVSTRESU" Name="NVSTRESU" DataType="text" SASFieldName="NVSTRESU"
                Length="4">
                <Description>
                    <TranslatedText xml:lang="en">Standard Units</TranslatedText>
                </Description>
            </ItemDef>
            <ItemDef OID="IT.NV.NVMETHOD" Name="NVMETHOD" DataType="text" SASFieldName="NVMETHOD"
                Length="15">
                <Description>
                    <TranslatedText xml:lang="en">Method of Test or Examination</TranslatedText>
                </Description>
            </ItemDef>
            <ItemDef OID="IT.NV.NVDTC" Name="NVDTC" DataType="datetime" SASFieldName="NVDTC">
                <Description>
                    <TranslatedText xml:lang="en">Date/Time of Collection</TranslatedText>
                </Description>
            </ItemDef>
            <ItemDef OID="IT.NV.VSENDTC" Name="VSENDTC" DataType="datetime" SASFieldName="VSENDTC"
                def:CommentOID="COM.ISO8601">
                <Description>
                    <TranslatedText xml:lang="en">End Date/Time of Observation</TranslatedText>
                </Description>
            </ItemDef>
            <ItemDef OID="IT.FAML_meal.DOMAIN" Name="DOMAIN" DataType="text" SASFieldName="DOMAIN"
                Length="2">
                <Description>
                    <TranslatedText xml:lang="en">Domain Abbreviation</TranslatedText>
                </Description>
                <CodeListRef CodeListOID="CL.DOMAIN.FA"/>
            </ItemDef>
            <ItemDef OID="IT.FAML_meal.FASEQ" Name="FASEQ" DataType="integer" SASFieldName="FASEQ"
                Length="1">
                <Description>
                    <TranslatedText xml:lang="en">Sequence Number</TranslatedText>
                </Description>
            </ItemDef>
            <ItemDef OID="IT.FAML_meal.FAGRPID" Name="FAGRPID" DataType="text"
                SASFieldName="FAGRPID" Length="20">
                <Description>
                    <TranslatedText xml:lang="en">Group ID</TranslatedText>
                </Description>
            </ItemDef>
            <ItemDef OID="IT.FAML_meal.FALINKID" Name="FALINKID" DataType="text"
                SASFieldName="FALINKID" Length="100">
                <Description>
                    <TranslatedText xml:lang="en">Link ID</TranslatedText>
                </Description>
            </ItemDef>
            <ItemDef OID="IT.FAML_meal.FATESTCD" Name="FATESTCD" DataType="text"
                SASFieldName="FATESTCD" Length="8">
                <Description>
                    <TranslatedText xml:lang="en">Findings About Test Short Name</TranslatedText>
                </Description>
            </ItemDef>
            <ItemDef OID="IT.FAML_meal.FATEST" Name="FATEST" DataType="text" SASFieldName="FATEST"
                Length="40">
                <Description>
                    <TranslatedText xml:lang="en">Findings About Test Name</TranslatedText>
                </Description>
            </ItemDef>
            <ItemDef OID="IT.FAML_meal.FAOBJ" Name="FAOBJ" DataType="text" SASFieldName="FAOBJ"
                Length="20">
                <Description>
                    <TranslatedText xml:lang="en">Object of the Observation</TranslatedText>
                </Description>
            </ItemDef>
            <ItemDef OID="IT.FAML_meal.FACAT" Name="FACAT" DataType="text" SASFieldName="FACAT"
                Length="8">
                <Description>
                    <TranslatedText xml:lang="en">Category for Findings About</TranslatedText>
                </Description>
            </ItemDef>
            <ItemDef OID="IT.FAML_meal.FASCAT" Name="FASCAT" DataType="text" SASFieldName="FASCAT"
                Length="30">
                <Description>
                    <TranslatedText xml:lang="en">Subcategory for Findings About</TranslatedText>
                </Description>
            </ItemDef>
            <ItemDef OID="IT.FAML_meal.FAORRES" Name="FAORRES" DataType="float"
                SASFieldName="FAORRES" Length="10" SignificantDigits="2">
                <Description>
                    <TranslatedText xml:lang="en">Result or Finding in Original
                        Units</TranslatedText>
                </Description>
            </ItemDef>
            <ItemDef OID="IT.FAML_meal.FAORRESU" Name="FAORRESU" DataType="text"
                SASFieldName="FAORRESU" Length="10">
                <Description>
                    <TranslatedText xml:lang="en">Original Units</TranslatedText>
                </Description>
                <CodeListRef CodeListOID="CL.C71620"/>
            </ItemDef>
            <ItemDef OID="IT.FAML_meal.FASTRESC" Name="FASTRESC" DataType="float"
                SASFieldName="FASTRESC" Length="10" SignificantDigits="2">
                <Description>
                    <TranslatedText xml:lang="en">Character Result/Finding in Std
                        Format</TranslatedText>
                </Description>
            </ItemDef>
            <ItemDef OID="IT.FAML_meal.FASTRESN" Name="FASTRESN" DataType="float"
                SASFieldName="FASTRESN" Length="10" SignificantDigits="2">
                <Description>
                    <TranslatedText xml:lang="en">Numeric Result/Finding in Standard
                        Units</TranslatedText>
                </Description>
            </ItemDef>
            <ItemDef OID="IT.FAML_meal.FASTRESU" Name="FASTRESU" DataType="text"
                SASFieldName="FASTRESU" Length="10">
                <Description>
                    <TranslatedText xml:lang="en">Standard Units</TranslatedText>
                </Description>
                <CodeListRef CodeListOID="CL.C71620"/>
            </ItemDef>
            <ItemDef OID="IT.FAML_meal.FAMETHOD" Name="FAMETHOD" DataType="text"
                SASFieldName="FAMETHOD" Length="4">
                <Description>
                    <TranslatedText xml:lang="en">Method of Test or Examination</TranslatedText>
                </Description>
            </ItemDef>
            <ItemDef OID="IT.FAML_meal.FAANMETH" Name="FAANMETH" DataType="text"
                SASFieldName="FAANMETH" Length="200">
                <Description>
                    <TranslatedText xml:lang="en">Analysis Method</TranslatedText>
                </Description>
                <CodeListRef CodeListOID="CL.FNDDS"/>
            </ItemDef>
            <ItemDef OID="IT.FAML_meal.FADTC" Name="FADTC" DataType="datetime" SASFieldName="FADTC"
                def:CommentOID="COM.ISO8601">
                <Description>
                    <TranslatedText xml:lang="en">Date/Time of Collection</TranslatedText>
                </Description>
            </ItemDef>
            <ItemDef OID="IT.FAML_meal.MLSVGNUM" Name="MLSVGNUM" DataType="integer"
                SASFieldName="MLSVGNUM" Length="3">
                <Description>
                    <TranslatedText xml:lang="en">Number of Servings</TranslatedText>
                </Description>
            </ItemDef>
            <ItemDef OID="IT.FAML_daily.DOMAIN" Name="DOMAIN" DataType="text" SASFieldName="DOMAIN"
                Length="2">
                <Description>
                    <TranslatedText xml:lang="en">Domain Abbreviation</TranslatedText>
                </Description>
                <CodeListRef CodeListOID="CL.DOMAIN.FA"/>
            </ItemDef>
            <ItemDef OID="IT.FAML_daily.FASEQ" Name="FASEQ" DataType="integer" SASFieldName="FASEQ"
                Length="1">
                <Description>
                    <TranslatedText xml:lang="en">Sequence Number</TranslatedText>
                </Description>
            </ItemDef>
            <ItemDef OID="IT.FAML_daily.FAGRPID" Name="FAGRPID" DataType="text"
                SASFieldName="FAGRPID" Length="20">
                <Description>
                    <TranslatedText xml:lang="en">Group ID</TranslatedText>
                </Description>
            </ItemDef>
            <ItemDef OID="IT.FAML_daily.FALINKID" Name="FALINKID" DataType="text"
                SASFieldName="FALINKID" Length="100">
                <Description>
                    <TranslatedText xml:lang="en">Link ID</TranslatedText>
                </Description>
            </ItemDef>
            <ItemDef OID="IT.FAML_daily.FATESTCD" Name="FATESTCD" DataType="text"
                SASFieldName="FATESTCD" Length="8">
                <Description>
                    <TranslatedText xml:lang="en">Findings About Test Short Name</TranslatedText>
                </Description>
            </ItemDef>
            <ItemDef OID="IT.FAML_daily.FATEST" Name="FATEST" DataType="text" SASFieldName="FATEST"
                Length="40">
                <Description>
                    <TranslatedText xml:lang="en">Findings About Test Name</TranslatedText>
                </Description>
            </ItemDef>
            <ItemDef OID="IT.FAML_daily.FAOBJ" Name="FAOBJ" DataType="text" SASFieldName="FAOBJ"
                Length="27">
                <Description>
                    <TranslatedText xml:lang="en">Object of the Observation</TranslatedText>
                </Description>
            </ItemDef>
            <ItemDef OID="IT.FAML_daily.FACAT" Name="FACAT" DataType="text" SASFieldName="FACAT"
                Length="8">
                <Description>
                    <TranslatedText xml:lang="en">Category for Findings About</TranslatedText>
                </Description>
            </ItemDef>
            <ItemDef OID="IT.FAML_daily.FASCAT" Name="FASCAT" DataType="text" SASFieldName="FASCAT"
                Length="14">
                <Description>
                    <TranslatedText xml:lang="en">Subcategory for Findings About</TranslatedText>
                </Description>
            </ItemDef>
            <ItemDef OID="IT.FAML_daily.FAORRES" Name="FAORRES" DataType="float"
                SASFieldName="FAORRES" Length="10" SignificantDigits="2">
                <Description>
                    <TranslatedText xml:lang="en">Result or Finding in Original
                        Units</TranslatedText>
                </Description>
            </ItemDef>
            <ItemDef OID="IT.FAML_daily.FAORRESU" Name="FAORRESU" DataType="text"
                SASFieldName="FAORRESU" Length="7">
                <Description>
                    <TranslatedText xml:lang="en">Original Units</TranslatedText>
                </Description>
                <CodeListRef CodeListOID="CL.C71620"/>
            </ItemDef>
            <ItemDef OID="IT.FAML_daily.FASTRESC" Name="FASTRESC" DataType="text"
                SASFieldName="FASTRESC" Length="10">
                <Description>
                    <TranslatedText xml:lang="en">Character Result/Finding in Std
                        Format</TranslatedText>
                </Description>
            </ItemDef>
            <ItemDef OID="IT.FAML_daily.FASTRESN" Name="FASTRESN" DataType="text"
                SASFieldName="FASTRESN" Length="8">
                <Description>
                    <TranslatedText xml:lang="en">Numeric Result/Finding in Standard
                        Units</TranslatedText>
                </Description>
            </ItemDef>
            <ItemDef OID="IT.FAML_daily.FASTRESU" Name="FASTRESU" DataType="text"
                SASFieldName="FASTRESU" Length="8">
                <Description>
                    <TranslatedText xml:lang="en">Standard Units</TranslatedText>
                </Description>
                <CodeListRef CodeListOID="CL.C71620"/>
            </ItemDef>
            <ItemDef OID="IT.FAML_daily.FAMETHOD" Name="FAMETHOD" DataType="text"
                SASFieldName="FAMETHOD" Length="4">
                <Description>
                    <TranslatedText xml:lang="en">Method of Test or Examination</TranslatedText>
                </Description>
            </ItemDef>
            <ItemDef OID="IT.FAML_daily.FAANMETH" Name="FAANMETH" DataType="text"
                SASFieldName="FAANMETH" Length="15">
                <Description>
                    <TranslatedText xml:lang="en">Analysis Method</TranslatedText>
                </Description>
                <CodeListRef CodeListOID="CL.FNDDS"/>
            </ItemDef>
            <ItemDef OID="IT.FAML_daily.FADTC" Name="FADTC" DataType="datetime" SASFieldName="FADTC"
                def:CommentOID="COM.ISO8601">
                <Description>
                    <TranslatedText xml:lang="en">Date/Time of Collection</TranslatedText>
                </Description>
            </ItemDef>
            <ItemDef OID="IT.FAML_daily.MLSVGNUM" Name="MLSVGNUM" DataType="integer"
                SASFieldName="MLSVGNUM" Length="3">
                <Description>
                    <TranslatedText xml:lang="en">Number of Servings</TranslatedText>
                </Description>
            </ItemDef>
            <ItemDef OID="IT.FAML_item.DOMAIN" Name="DOMAIN" DataType="text" SASFieldName="DOMAIN"
                Length="2">
                <Description>
                    <TranslatedText xml:lang="en">Domain Abbreviation</TranslatedText>
                </Description>
                <CodeListRef CodeListOID="CL.DOMAIN.FA"/>
            </ItemDef>
            <ItemDef OID="IT.FAML_item.FASEQ" Name="FASEQ" DataType="integer" SASFieldName="FASEQ"
                Length="1">
                <Description>
                    <TranslatedText xml:lang="en">Sequence Number</TranslatedText>
                </Description>
            </ItemDef>
            <ItemDef OID="IT.FAML_item.FAGRPID" Name="FAGRPID" DataType="text"
                SASFieldName="FAGRPID" Length="20">
                <Description>
                    <TranslatedText xml:lang="en">Group ID</TranslatedText>
                </Description>
            </ItemDef>
            <ItemDef OID="IT.FAML_item.FALINKID" Name="FALINKID" DataType="text"
                SASFieldName="FALINKID" Length="100">
                <Description>
                    <TranslatedText xml:lang="en">Link ID</TranslatedText>
                </Description>
            </ItemDef>
            <ItemDef OID="IT.FAML_item.FATESTCD" Name="FATESTCD" DataType="text"
                SASFieldName="FATESTCD" Length="8">
                <Description>
                    <TranslatedText xml:lang="en">Findings About Test Short Name</TranslatedText>
                </Description>
            </ItemDef>
            <ItemDef OID="IT.FAML_item.FATEST" Name="FATEST" DataType="text" SASFieldName="FATEST"
                Length="40">
                <Description>
                    <TranslatedText xml:lang="en">Findings About Test Name</TranslatedText>
                </Description>
            </ItemDef>
            <ItemDef OID="IT.FAML_item.FAOBJ" Name="FAOBJ" DataType="text" SASFieldName="FAOBJ"
                Length="500">
                <Description>
                    <TranslatedText xml:lang="en">Object of the Observation</TranslatedText>
                </Description>
            </ItemDef>
            <ItemDef OID="IT.FAML_item.FACAT" Name="FACAT" DataType="text" SASFieldName="FACAT"
                Length="8">
                <Description>
                    <TranslatedText xml:lang="en">Category for Findings About</TranslatedText>
                </Description>
            </ItemDef>
            <ItemDef OID="IT.FAML_item.FASCAT" Name="FASCAT" DataType="text" SASFieldName="FASCAT"
                Length="14">
                <Description>
                    <TranslatedText xml:lang="en">Subcategory for Findings About</TranslatedText>
                </Description>
            </ItemDef>
            <ItemDef OID="IT.FAML_item.FAORRES" Name="FAORRES" DataType="float"
                SASFieldName="FAORRES" Length="10" SignificantDigits="2">
                <Description>
                    <TranslatedText xml:lang="en">Result or Finding in Original
                        Units</TranslatedText>
                </Description>
            </ItemDef>
            <ItemDef OID="IT.FAML_item.FAORRESU" Name="FAORRESU" DataType="text"
                SASFieldName="FAORRESU" Length="7">
                <Description>
                    <TranslatedText xml:lang="en">Original Units</TranslatedText>
                </Description>
                <CodeListRef CodeListOID="CL.C71620"/>
            </ItemDef>
            <ItemDef OID="IT.FAML_item.FASTRESC" Name="FASTRESC" DataType="text"
                SASFieldName="FASTRESC" Length="50">
                <Description>
                    <TranslatedText xml:lang="en">Character Result/Finding in Std
                        Format</TranslatedText>
                </Description>
            </ItemDef>
            <ItemDef OID="IT.FAML_item.FASTRESN" Name="FASTRESN" DataType="text"
                SASFieldName="FASTRESN" Length="50">
                <Description>
                    <TranslatedText xml:lang="en">Numeric Result/Finding in Standard
                        Units</TranslatedText>
                </Description>
            </ItemDef>
            <ItemDef OID="IT.FAML_item.FASTRESU" Name="FASTRESU" DataType="text"
                SASFieldName="FASTRESU" Length="8">
                <Description>
                    <TranslatedText xml:lang="en">Standard Units</TranslatedText>
                </Description>
                <CodeListRef CodeListOID="CL.C71620"/>
            </ItemDef>
            <ItemDef OID="IT.FAML_item.FAMETHOD" Name="FAMETHOD" DataType="text"
                SASFieldName="FAMETHOD" Length="4">
                <Description>
                    <TranslatedText xml:lang="en">Method of Test or Examination</TranslatedText>
                </Description>
            </ItemDef>
            <ItemDef OID="IT.FAML_item.FAANMETH" Name="FAANMETH" DataType="text"
                SASFieldName="FAANMETH" Length="15">
                <Description>
                    <TranslatedText xml:lang="en">Analysis Method</TranslatedText>
                </Description>
                <CodeListRef CodeListOID="CL.FNDDS"/>
            </ItemDef>
            <ItemDef OID="IT.FAML_item.FADTC" Name="FADTC" DataType="datetime" SASFieldName="FADTC"
                def:CommentOID="COM.ISO8601">
                <Description>
                    <TranslatedText xml:lang="en">Date/Time of Collection</TranslatedText>
                </Description>
            </ItemDef>
            <ItemDef OID="IT.FAML_item.MLSVGNUM" Name="MLSVGNUM" DataType="integer"
                SASFieldName="MLSVGNUM" Length="3">
                <Description>
                    <TranslatedText xml:lang="en">Number of Servings</TranslatedText>
                </Description>
            </ItemDef>
            <ItemDef OID="IT.FA.FAORRES.AGE" Name="FAORRES" DataType="text" SASFieldName="FAORRES"
                Length="17">
                <CodeListRef CodeListOID="CL.FA.FAORRES.AGE"/>
            </ItemDef>
            <ItemDef OID="IT.FA.FAORRES.SICKTODY" Name="FAORRES" DataType="text"
                SASFieldName="FAORRES" Length="22">
                <CodeListRef CodeListOID="CL.FA.FAORRES.SICKTODY"/>
            </ItemDef>
            <ItemDef OID="IT.FA.FAORRES.INSCHFL" Name="FAORRES" DataType="text"
                SASFieldName="FAORRES" Length="21">
                <CodeListRef CodeListOID="CL.FA.FAORRES.INSCHFL"/>
            </ItemDef>
            <ItemDef OID="IT.FA.FAORRES.STRESTDY" Name="FAORRES" DataType="text"
                SASFieldName="FAORRES" Length="22">
                <CodeListRef CodeListOID="CL.FA.FAORRES.STRESTDY"/>
            </ItemDef>
            <ItemDef OID="IT.FA.FAORRES.SLEEPQLT" Name="FAORRES" DataType="text"
                SASFieldName="FAORRES" Length="22">
                <CodeListRef CodeListOID="CL.FA.FAORRES.SLEEPQLT"/>
            </ItemDef>
            <ItemDef OID="IT.FADX.FAORRES.INSULIN-PUMP-OR-CLOSED-LOOP" Name="FAORRES"
                DataType="text" SASFieldName="FAORRES" Length="43">
                <CodeListRef CodeListOID="CL.FADX.FAORRES.INSULIN-PUMP-OR-CLOSED-LOOP"/>
            </ItemDef>
            <ItemDef OID="IT.FADX.FAORRES.CGM" Name="FAORRES" DataType="text" SASFieldName="FAORRES"
                Length="19">
                <CodeListRef CodeListOID="CL.FADX.FAORRES.CGM"/>
            </ItemDef>
            <ItemDef OID="IT.FADX.FAORRES.CGM-USE-LAST-MONTH" Name="FAORRES" DataType="integer"
                SASFieldName="FAORRES" Length="3"/>
            <ItemDef OID="IT.SC.SCORRES.EDULEVEL" Name="SCORRES" DataType="text"
                SASFieldName="SCORRES" Length="22">
                <CodeListRef CodeListOID="CL.SC.SCORRES.EDULEVEL"/>
            </ItemDef>
            <ItemDef OID="IT.SC.SCORRES.INCMLVL" Name="SCORRES" DataType="text"
                SASFieldName="SCORRES" Length="21">
                <CodeListRef CodeListOID="CL.SC.SCORRES.INCMLVL"/>
            </ItemDef>
            <ItemDef OID="IT.LB.LBORRES.HBA1C" Name="LBORRES" DataType="text" SASFieldName="LBORRES"
                Length="19">
                <CodeListRef CodeListOID="CL.LB.LBORRES.HBA1C"/>
            </ItemDef>
            <ItemDef OID="IT.LB.LBORRES.GLUC" Name="LBORRES" DataType="text" SASFieldName="LBORRES"
                Length="18">
                <CodeListRef CodeListOID="CL.LB.LBORRES.GLUC"/>
            </ItemDef>
            <ItemDef OID="IT.QS.TESTCD.IPAQ-SHORT-SELF-ADMINISTERED-VERSION" Name="TESTCD"
                DataType="text" SASFieldName="TESTCD" Length="49">
                <CodeListRef CodeListOID="CL.QS.TESTCD.IPAQ-SHORT-SELF-ADMINISTERED-VERSION"/>
            </ItemDef>
            <ItemDef OID="IT.QS.TESTCD.CLARK-HYPOGLYCEMIA-UNAWARENESS-SURVEY-SELF-ADMINISTERED"
                Name="TESTCD" DataType="text" SASFieldName="TESTCD" Length="68">
                <CodeListRef
                    CodeListOID="CL.QS.TESTCD.CLARK-HYPOGLYCEMIA-UNAWARENESS-SURVEY-SELF-ADMINISTERED"
                />
            </ItemDef>
            <ItemDef OID="IT.QS.TESTCD.PITTSBURG-SLEEP-QUALITY-INDEX" Name="TESTCD" DataType="text"
                SASFieldName="TESTCD" Length="42">
                <CodeListRef CodeListOID="CL.QS.TESTCD.PITTSBURG-SLEEP-QUALITY-INDEX"/>
            </ItemDef>
            <ItemDef OID="IT.QS.TEST.IPAQ-SHORT-SELF-ADMINISTERED-VERSION" Name="TEST"
                DataType="text" SASFieldName="TEST" Length="47">
                <CodeListRef CodeListOID="CL.QS.TEST.IPAQ-SHORT-SELF-ADMINISTERED-VERSION"/>
            </ItemDef>
            <ItemDef OID="IT.QS.TEST.CLARK-HYPOGLYCEMIA-UNAWARENESS-SURVEY-SELF-ADMINISTERED"
                Name="TEST" DataType="text" SASFieldName="TEST" Length="66">
                <CodeListRef
                    CodeListOID="CL.QS.TEST.CLARK-HYPOGLYCEMIA-UNAWARENESS-SURVEY-SELF-ADMINISTERED"
                />
            </ItemDef>
            <ItemDef OID="IT.QS.TEST.PITTSBURG-SLEEP-QUALITY-INDEX" Name="TEST" DataType="text"
                SASFieldName="TEST" Length="40">
                <CodeListRef CodeListOID="CL.QS.TEST.PITTSBURG-SLEEP-QUALITY-INDEX"/>
            </ItemDef>
            <CodeList OID="CL.C66731" Name="Sex" DataType="text" def:StandardOID="STD.3">
                <CodeListItem CodedValue="F" OrderNumber="1">
                    <Decode>
                        <TranslatedText xml:lang="en">Female</TranslatedText>
                    </Decode>
                    <Alias Context="nci:ExtCodeID" Name="C16576"/>
                </CodeListItem>
                <CodeListItem CodedValue="M" OrderNumber="2">
                    <Decode>
                        <TranslatedText xml:lang="en">Male</TranslatedText>
                    </Decode>
                    <Alias Context="nci:ExtCodeID" Name="C20197"/>
                </CodeListItem>
                <CodeListItem CodedValue="U" OrderNumber="3">
                    <Decode>
                        <TranslatedText xml:lang="en">Unknown</TranslatedText>
                    </Decode>
                    <Alias Context="nci:ExtCodeID" Name="C17998"/>
                </CodeListItem>
                <CodeListItem CodedValue="UNDIFFERENTIATED" OrderNumber="4">
                    <Decode>
                        <TranslatedText xml:lang="en">Intersex</TranslatedText>
                    </Decode>
                    <Alias Context="nci:ExtCodeID" Name="C45908"/>
                </CodeListItem>
                <Alias Context="nci:ExtCodeID" Name="C66731"/>
            </CodeList>
            <CodeList OID="CL.C74457" Name="Race" DataType="text" def:StandardOID="STD.3">
                <CodeListItem CodedValue="AMERICAN INDIAN OR ALASKA NATIVE" OrderNumber="1">
                    <Decode>
                        <TranslatedText xml:lang="en">American Indian or Alaska
                            Native</TranslatedText>
                    </Decode>
                    <Alias Context="nci:ExtCodeID" Name="C41259"/>
                </CodeListItem>
                <CodeListItem CodedValue="ASIAN" OrderNumber="2">
                    <Decode>
                        <TranslatedText xml:lang="en">Asian</TranslatedText>
                    </Decode>
                    <Alias Context="nci:ExtCodeID" Name="C41260"/>
                </CodeListItem>
                <CodeListItem CodedValue="BLACK OR AFRICAN AMERICAN" OrderNumber="3">
                    <Decode>
                        <TranslatedText xml:lang="en">Black or African American</TranslatedText>
                    </Decode>
                    <Alias Context="nci:ExtCodeID" Name="C16352"/>
                </CodeListItem>
                <CodeListItem CodedValue="NATIVE HAWAIIAN OR OTHER PACIFIC ISLANDER" OrderNumber="4">
                    <Decode>
                        <TranslatedText xml:lang="en">Native Hawaiian or Other Pacific
                            Islander</TranslatedText>
                    </Decode>
                    <Alias Context="nci:ExtCodeID" Name="C41219"/>
                </CodeListItem>
                <CodeListItem CodedValue="NOT REPORTED" OrderNumber="5">
                    <Decode>
                        <TranslatedText xml:lang="en">Not Reported</TranslatedText>
                    </Decode>
                    <Alias Context="nci:ExtCodeID" Name="C43234"/>
                </CodeListItem>
                <CodeListItem CodedValue="UNKNOWN" OrderNumber="6">
                    <Decode>
                        <TranslatedText xml:lang="en">Unknown</TranslatedText>
                    </Decode>
                    <Alias Context="nci:ExtCodeID" Name="C17998"/>
                </CodeListItem>
                <CodeListItem CodedValue="WHITE" OrderNumber="7">
                    <Decode>
                        <TranslatedText xml:lang="en">White</TranslatedText>
                    </Decode>
                    <Alias Context="nci:ExtCodeID" Name="C41261"/>
                </CodeListItem>
                <Alias Context="nci:ExtCodeID" Name="C74457"/>
            </CodeList>
            <CodeList OID="CL.C66790" Name="Ethnic Group" DataType="text" def:StandardOID="STD.3">
                <CodeListItem CodedValue="HISPANIC OR LATINO" OrderNumber="1">
                    <Decode>
                        <TranslatedText xml:lang="en">Hispanic or Latino</TranslatedText>
                    </Decode>
                    <Alias Context="nci:ExtCodeID" Name="C17459"/>
                </CodeListItem>
                <CodeListItem CodedValue="NOT HISPANIC OR LATINO" OrderNumber="2">
                    <Decode>
                        <TranslatedText xml:lang="en">Not Hispanic or Latino</TranslatedText>
                    </Decode>
                    <Alias Context="nci:ExtCodeID" Name="C41222"/>
                </CodeListItem>
                <CodeListItem CodedValue="NOT REPORTED" OrderNumber="3">
                    <Decode>
                        <TranslatedText xml:lang="en">Not Reported</TranslatedText>
                    </Decode>
                    <Alias Context="nci:ExtCodeID" Name="C43234"/>
                </CodeListItem>
                <CodeListItem CodedValue="UNKNOWN" OrderNumber="4">
                    <Decode>
                        <TranslatedText xml:lang="en">Unknown</TranslatedText>
                    </Decode>
                    <Alias Context="nci:ExtCodeID" Name="C17998"/>
                </CodeListItem>
                <Alias Context="nci:ExtCodeID" Name="C66790"/>
            </CodeList>
            <CodeList OID="CL.DOMAIN.VS" Name="Domain Abbreviation (VS)" DataType="text"
                def:StandardOID="STD.3">
                <CodeListItem CodedValue="VS" OrderNumber="1">
                    <Decode>
                        <TranslatedText xml:lang="en">Vital Signs Domain</TranslatedText>
                    </Decode>
                    <Alias Context="nci:ExtCodeID" Name="C49622"/>
                </CodeListItem>
                <Alias Context="nci:ExtCodeID" Name="C66734"/>
            </CodeList>
            <CodeList OID="CL.DOMAIN.SC" Name="Domain Abbreviation (SC)" DataType="text"
                def:StandardOID="STD.3">
                <CodeListItem CodedValue="SC" OrderNumber="1">
                    <Decode>
                        <TranslatedText xml:lang="en">Subject Characteristics
                            Domain</TranslatedText>
                    </Decode>
                    <Alias Context="nci:ExtCodeID" Name="C49610"/>
                </CodeListItem>
                <Alias Context="nci:ExtCodeID" Name="C66734"/>
            </CodeList>
            <CodeList OID="CL.DOMAIN.QS" Name="Domain Abbreviation (QS)" DataType="text"
                def:StandardOID="STD.3">
                <CodeListItem CodedValue="QS" OrderNumber="1">
                    <Decode>
                        <TranslatedText xml:lang="en">Questionnaire Domain</TranslatedText>
                    </Decode>
                    <Alias Context="nci:ExtCodeID" Name="C49609"/>
                </CodeListItem>
                <Alias Context="nci:ExtCodeID" Name="C66734"/>
            </CodeList>
            <CodeList OID="CL.DOMAIN.RP" Name="Domain Abbreviation (RP)" DataType="text"
                def:StandardOID="STD.3">
                <CodeListItem CodedValue="RP" OrderNumber="1">
                    <Decode>
                        <TranslatedText xml:lang="en">Reproductive System Findings
                            Domain</TranslatedText>
                    </Decode>
                    <Alias Context="nci:ExtCodeID" Name="C102707"/>
                </CodeListItem>
                <Alias Context="nci:ExtCodeID" Name="C66734"/>
            </CodeList>
            <CodeList OID="CL.DOMAIN.PR" Name="Domain Abbreviation (PR)" DataType="text"
                def:StandardOID="STD.3">
                <CodeListItem CodedValue="PR" OrderNumber="1">
                    <Decode>
                        <TranslatedText xml:lang="en">Procedure Domain</TranslatedText>
                    </Decode>
                    <Alias Context="nci:ExtCodeID" Name="C102700"/>
                </CodeListItem>
                <Alias Context="nci:ExtCodeID" Name="C66734"/>
            </CodeList>
            <CodeList OID="CL.DOMAIN.ML" Name="Domain Abbreviation (ML)" DataType="text"
                def:StandardOID="STD.3">
                <CodeListItem CodedValue="ML" OrderNumber="1">
                    <Decode>
                        <TranslatedText xml:lang="en">Meal Data Domain</TranslatedText>
                    </Decode>
                    <Alias Context="nci:ExtCodeID" Name="C49604"/>
                </CodeListItem>
                <Alias Context="nci:ExtCodeID" Name="C66734"/>
            </CodeList>
            <CodeList OID="CL.DOMAIN.LB" Name="Domain Abbreviation (LB)" DataType="text"
                def:StandardOID="STD.3">
                <CodeListItem CodedValue="LB" OrderNumber="1">
                    <Decode>
                        <TranslatedText xml:lang="en">Laboratory Data Domain</TranslatedText>
                    </Decode>
                    <Alias Context="nci:ExtCodeID" Name="C49592"/>
                </CodeListItem>
                <Alias Context="nci:ExtCodeID" Name="C66734"/>
            </CodeList>
            <CodeList OID="CL.DOMAIN.NV" Name="Domain Abbreviation (NV)" DataType="text"
                def:StandardOID="STD.3">
                <CodeListItem CodedValue="NV" OrderNumber="1">
                    <Decode>
                        <TranslatedText xml:lang="en">Nervous System Findings
                            Domain</TranslatedText>
                    </Decode>
                    <Alias Context="nci:ExtCodeID" Name="C102677"/>
                </CodeListItem>
                <Alias Context="nci:ExtCodeID" Name="C66734"/>
            </CodeList>
            <CodeList OID="CL.DOMAIN.FA" Name="Domain Abbreviation (FA)" DataType="text"
                def:StandardOID="STD.3">
                <CodeListItem CodedValue="FA" OrderNumber="1">
                    <Decode>
                        <TranslatedText xml:lang="en">Findings About Events or Interventions
                            Domain</TranslatedText>
                    </Decode>
                    <Alias Context="nci:ExtCodeID" Name="C85442"/>
                </CodeListItem>
                <Alias Context="nci:ExtCodeID" Name="C66734"/>
            </CodeList>
            <CodeList OID="CL.DOMAIN.DX" Name="Domain Abbreviation (DX)" DataType="text"
                def:StandardOID="STD.3">
                <CodeListItem CodedValue="DX" OrderNumber="1">
                    <Decode>
                        <TranslatedText xml:lang="en">Device Exposure Domain</TranslatedText>
                    </Decode>
                    <Alias Context="nci:ExtCodeID" Name="C102617"/>
                </CodeListItem>
                <Alias Context="nci:ExtCodeID" Name="C66734"/>
            </CodeList>
            <CodeList OID="CL.DOMAIN.DM" Name="Domain Abbreviation (DM)" DataType="text"
                def:StandardOID="STD.3">
                <CodeListItem CodedValue="DM" OrderNumber="1">
                    <Decode>
                        <TranslatedText xml:lang="en">Demographics Domain</TranslatedText>
                    </Decode>
                    <Alias Context="nci:ExtCodeID" Name="C49572"/>
                </CodeListItem>
                <Alias Context="nci:ExtCodeID" Name="C66734"/>
            </CodeList>
            <CodeList OID="CL.DOMAIN.DI" Name="Domain Abbreviation (DI)" DataType="text"
                def:StandardOID="STD.3">
                <CodeListItem CodedValue="DI" OrderNumber="1">
                    <Decode>
                        <TranslatedText xml:lang="en">Device Identifiers Domain</TranslatedText>
                    </Decode>
                    <Alias Context="nci:ExtCodeID" Name="C102618"/>
                </CodeListItem>
                <Alias Context="nci:ExtCodeID" Name="C66734"/>
            </CodeList>
            <CodeList OID="CL.DOMAIN.CM" Name="Domain Abbreviation (CM)" DataType="text"
                def:StandardOID="STD.3">
                <CodeListItem CodedValue="CM" OrderNumber="1">
                    <Decode>
                        <TranslatedText xml:lang="en">Concomitant Medication Domain</TranslatedText>
                    </Decode>
                    <Alias Context="nci:ExtCodeID" Name="C49568"/>
                </CodeListItem>
                <Alias Context="nci:ExtCodeID" Name="C66734"/>
            </CodeList>
            <CodeList OID="CL.DOMAIN.RELREC" Name="Domain Abbreviation (RELREC)" DataType="text"
                def:StandardOID="STD.3">
                <CodeListItem CodedValue="ML" OrderNumber="1">
                    <Decode>
                        <TranslatedText xml:lang="en">Meal Data Domain</TranslatedText>
                    </Decode>
                    <Alias Context="nci:ExtCodeID" Name="C49604"/>
                </CodeListItem>
                <CodeListItem CodedValue="CM" OrderNumber="2">
                    <Decode>
                        <TranslatedText xml:lang="en">Concomitant Medication Domain</TranslatedText>
                    </Decode>
                    <Alias Context="nci:ExtCodeID" Name="C49568"/>
                </CodeListItem>
                <CodeListItem CodedValue="DX" OrderNumber="3">
                    <Decode>
                        <TranslatedText xml:lang="en">Device Exposure Domain</TranslatedText>
                    </Decode>
                    <Alias Context="nci:ExtCodeID" Name="C102617"/>
                </CodeListItem>
                <CodeListItem CodedValue="FA" OrderNumber="4">
                    <Decode>
                        <TranslatedText xml:lang="en">Findings About Events or Interventions
                            Domain</TranslatedText>
                    </Decode>
                    <Alias Context="nci:ExtCodeID" Name="C85442"/>
                </CodeListItem>
                <Alias Context="nci:ExtCodeID" Name="C66734"/>
            </CodeList>
            <CodeList OID="CL.C65047" Name="LBTESTCD" DataType="text" def:StandardOID="STD.3">
                <CodeListItem CodedValue="GLUC" OrderNumber="1">
                    <Decode>
                        <TranslatedText xml:lang="en">Glucose Measurement</TranslatedText>
                    </Decode>
                    <Alias Context="nci:ExtCodeID" Name="C105585"/>
                </CodeListItem>
                <CodeListItem CodedValue="HBA1C" OrderNumber="2">
                    <Decode>
                        <TranslatedText xml:lang="en">Glycosylated Hemoglobin
                            Measurement</TranslatedText>
                    </Decode>
                    <Alias Context="nci:ExtCodeID" Name="C64849"/>
                </CodeListItem>
                <Alias Context="nci:ExtCodeID" Name="C65047"/>
            </CodeList>
            <CodeList OID="CL.C67154" Name="LBTEST" DataType="text" def:StandardOID="STD.3">
                <CodeListItem CodedValue="Glucose" OrderNumber="1">
                    <Decode>
                        <TranslatedText xml:lang="en">Glucose Measurement</TranslatedText>
                    </Decode>
                    <Alias Context="nci:ExtCodeID" Name="C105585"/>
                </CodeListItem>
                <CodeListItem CodedValue="Hemoglobin A1C" OrderNumber="2">
                    <Decode>
                        <TranslatedText xml:lang="en">Glycosylated Hemoglobin
                            Measurement</TranslatedText>
                    </Decode>
                    <Alias Context="nci:ExtCodeID" Name="C64849"/>
                </CodeListItem>
                <Alias Context="nci:ExtCodeID" Name="C67154"/>
            </CodeList>
            <CodeList OID="CL.C66742" Name="NY" DataType="text" def:StandardOID="STD.3">
                <CodeListItem CodedValue="Y" OrderNumber="1">
                    <Decode>
                        <TranslatedText xml:lang="en">Yes</TranslatedText>
                    </Decode>
                    <Alias Context="nci:ExtCodeID" Name="C49488"/>
                </CodeListItem>
                <Alias Context="nci:ExtCodeID" Name="C66742"/>
            </CodeList>
            <CodeList OID="CL.C66728" Name="STENRF" DataType="text" def:StandardOID="STD.3">
                <CodeListItem CodedValue="BEFORE" OrderNumber="1">
                    <Decode>
                        <TranslatedText xml:lang="en">Prior</TranslatedText>
                    </Decode>
                    <Alias Context="nci:ExtCodeID" Name="C25629"/>
                </CodeListItem>
                <CodeListItem CodedValue="ONGOING" OrderNumber="2">
                    <Decode>
                        <TranslatedText xml:lang="en">Continue</TranslatedText>
                    </Decode>
                    <Alias Context="nci:ExtCodeID" Name="C53279"/>
                </CodeListItem>
                <Alias Context="nci:ExtCodeID" Name="C66728"/>
            </CodeList>
            <CodeList OID="CL.C66781" Name="AGEU" DataType="text" def:StandardOID="STD.3">
                <CodeListItem CodedValue="YEARS" OrderNumber="1">
                    <Decode>
                        <TranslatedText xml:lang="en">Year</TranslatedText>
                    </Decode>
                    <Alias Context="nci:ExtCodeID" Name="C29848"/>
                </CodeListItem>
                <Alias Context="nci:ExtCodeID" Name="C66781"/>
            </CodeList>
            <CodeList OID="CL.C71620" Name="UNIT" DataType="text" def:StandardOID="STD.3">
                <CodeListItem CodedValue="%" OrderNumber="1">
                    <Decode>
                        <TranslatedText xml:lang="en">Percentage</TranslatedText>
                    </Decode>
                    <Alias Context="nci:ExtCodeID" Name="C25613"/>
                </CodeListItem>
                <CodeListItem CodedValue="cup eq" OrderNumber="2">
                    <Decode>
                        <TranslatedText xml:lang="en">Cup Equivalent</TranslatedText>
                    </Decode>
                    <Alias Context="nci:ExtCodeID" Name="C172604"/>
                </CodeListItem>
                <CodeListItem CodedValue="DAYS" OrderNumber="3">
                    <Decode>
                        <TranslatedText xml:lang="en">Day</TranslatedText>
                    </Decode>
                    <Alias Context="nci:ExtCodeID" Name="C25301"/>
                </CodeListItem>
                <CodeListItem CodedValue="days/wk" OrderNumber="4">
                    <Decode>
                        <TranslatedText xml:lang="en">Days Per Week</TranslatedText>
                    </Decode>
                    <Alias Context="nci:ExtCodeID" Name="C170633"/>
                </CodeListItem>
                <CodeListItem CodedValue="DRINK" OrderNumber="5">
                    <Decode>
                        <TranslatedText xml:lang="en">Drink Dosing Unit</TranslatedText>
                    </Decode>
                    <Alias Context="nci:ExtCodeID" Name="C161487"/>
                </CodeListItem>
                <CodeListItem CodedValue="g" OrderNumber="6">
                    <Decode>
                        <TranslatedText xml:lang="en">Gram</TranslatedText>
                    </Decode>
                    <Alias Context="nci:ExtCodeID" Name="C48155"/>
                </CodeListItem>
                <CodeListItem CodedValue="kcal" OrderNumber="7">
                    <Decode>
                        <TranslatedText xml:lang="en">Calorie</TranslatedText>
                    </Decode>
                    <Alias Context="nci:ExtCodeID" Name="C67194"/>
                </CodeListItem>
                <CodeListItem CodedValue="mg" OrderNumber="8">
                    <Decode>
                        <TranslatedText xml:lang="en">Milligram</TranslatedText>
                    </Decode>
                    <Alias Context="nci:ExtCodeID" Name="C28253"/>
                </CodeListItem>
                <CodeListItem CodedValue="mg/dL" OrderNumber="9">
                    <Decode>
                        <TranslatedText xml:lang="en">Milligram per Deciliter</TranslatedText>
                    </Decode>
                    <Alias Context="nci:ExtCodeID" Name="C67015"/>
                </CodeListItem>
                <CodeListItem CodedValue="min/day" OrderNumber="10">
                    <Decode>
                        <TranslatedText xml:lang="en">Minute per Day</TranslatedText>
                    </Decode>
                    <Alias Context="nci:ExtCodeID" Name="C176381"/>
                </CodeListItem>
                <CodeListItem CodedValue="oz eq" OrderNumber="11">
                    <Decode>
                        <TranslatedText xml:lang="en">Ounce Equivalent</TranslatedText>
                    </Decode>
                    <Alias Context="nci:ExtCodeID" Name="C172605"/>
                </CodeListItem>
                <CodeListItem CodedValue="SERVING" OrderNumber="12">
                    <Decode>
                        <TranslatedText xml:lang="en">Serving Dosing Unit</TranslatedText>
                    </Decode>
                    <Alias Context="nci:ExtCodeID" Name="C184720"/>
                </CodeListItem>
                <CodeListItem CodedValue="tsp eq" OrderNumber="13">
                    <Decode>
                        <TranslatedText xml:lang="en">Teaspoon Equivalent</TranslatedText>
                    </Decode>
                    <Alias Context="nci:ExtCodeID" Name="C172603"/>
                </CodeListItem>
                <CodeListItem CodedValue="U" OrderNumber="14">
                    <Decode>
                        <TranslatedText xml:lang="en">Unit</TranslatedText>
                    </Decode>
                    <Alias Context="nci:ExtCodeID" Name="C44278"/>
                </CodeListItem>
                <CodeListItem CodedValue="U/hr" OrderNumber="15">
                    <Decode>
                        <TranslatedText xml:lang="en">U/hr</TranslatedText>
                    </Decode>
                </CodeListItem>
                <Alias Context="nci:ExtCodeID" Name="C71620"/>
            </CodeList>
            <CodeList OID="CL.C71113" Name="FREQ" DataType="text" def:StandardOID="STD.3">
                <CodeListItem CodedValue="QD" OrderNumber="1">
                    <Decode>
                        <TranslatedText xml:lang="en">Daily</TranslatedText>
                    </Decode>
                    <Alias Context="nci:ExtCodeID" Name="C25473"/>
                </CodeListItem>
                <Alias Context="nci:ExtCodeID" Name="C71113"/>
            </CodeList>
            <CodeList OID="CL.C74559" Name="SCTESTCD" DataType="text" def:StandardOID="STD.3">
                <CodeListItem CodedValue="EDULEVEL" OrderNumber="1">
                    <Decode>
                        <TranslatedText xml:lang="en">Education Level</TranslatedText>
                    </Decode>
                    <Alias Context="nci:ExtCodeID" Name="C17953"/>
                </CodeListItem>
                <CodeListItem CodedValue="INCMLVL" OrderNumber="2">
                    <Decode>
                        <TranslatedText xml:lang="en">Income Level</TranslatedText>
                    </Decode>
                    <Alias Context="nci:ExtCodeID" Name="C154890"/>
                </CodeListItem>
                <CodeListItem CodedValue="HLTHINS" OrderNumber="3">
                    <Decode>
                        <TranslatedText xml:lang="en">HLTHINS</TranslatedText>
                    </Decode>
                </CodeListItem>
                <Alias Context="nci:ExtCodeID" Name="C74559"/>
            </CodeList>
            <CodeList OID="CL.C103330" Name="SCTEST" DataType="text" def:StandardOID="STD.3">
                <CodeListItem CodedValue="Income Level" OrderNumber="1">
                    <Decode>
                        <TranslatedText xml:lang="en">Income Level</TranslatedText>
                    </Decode>
                    <Alias Context="nci:ExtCodeID" Name="C154890"/>
                </CodeListItem>
                <CodeListItem CodedValue="Level of Education Attained" OrderNumber="2">
                    <Decode>
                        <TranslatedText xml:lang="en">Education Level</TranslatedText>
                    </Decode>
                    <Alias Context="nci:ExtCodeID" Name="C17953"/>
                </CodeListItem>
                <CodeListItem CodedValue="HEALTH INSURANCE" OrderNumber="3">
                    <Decode>
                        <TranslatedText xml:lang="en">HEALTH INSURANCE</TranslatedText>
                    </Decode>
                </CodeListItem>
                <Alias Context="nci:ExtCodeID" Name="C103330"/>
            </CodeList>
            <CodeList OID="CL.C66741" Name="VSTESTCD" DataType="text" def:StandardOID="STD.3">
                <CodeListItem CodedValue="HEIGHT" OrderNumber="1">
                    <Decode>
                        <TranslatedText xml:lang="en">Height</TranslatedText>
                    </Decode>
                    <Alias Context="nci:ExtCodeID" Name="C25347"/>
                </CodeListItem>
                <CodeListItem CodedValue="HR" OrderNumber="2">
                    <Decode>
                        <TranslatedText xml:lang="en">Heart Rate</TranslatedText>
                    </Decode>
                    <Alias Context="nci:ExtCodeID" Name="C49677"/>
                </CodeListItem>
                <CodeListItem CodedValue="WEIGHT" OrderNumber="3">
                    <Decode>
                        <TranslatedText xml:lang="en">Weight</TranslatedText>
                    </Decode>
                    <Alias Context="nci:ExtCodeID" Name="C25208"/>
                </CodeListItem>
                <CodeListItem CodedValue="HRM" OrderNumber="4">
                    <Decode>
                        <TranslatedText xml:lang="en">HRM</TranslatedText>
                    </Decode>
                </CodeListItem>
                <Alias Context="nci:ExtCodeID" Name="C66741"/>
            </CodeList>
            <CodeList OID="CL.C67153" Name="VSTEST" DataType="text" def:StandardOID="STD.3">
                <CodeListItem CodedValue="Heart Rate" OrderNumber="1">
                    <Decode>
                        <TranslatedText xml:lang="en">Heart Rate</TranslatedText>
                    </Decode>
                    <Alias Context="nci:ExtCodeID" Name="C49677"/>
                </CodeListItem>
                <CodeListItem CodedValue="Height" OrderNumber="2">
                    <Decode>
                        <TranslatedText xml:lang="en">Height</TranslatedText>
                    </Decode>
                    <Alias Context="nci:ExtCodeID" Name="C25347"/>
                </CodeListItem>
                <CodeListItem CodedValue="Weight" OrderNumber="3">
                    <Decode>
                        <TranslatedText xml:lang="en">Weight</TranslatedText>
                    </Decode>
                    <Alias Context="nci:ExtCodeID" Name="C25208"/>
                </CodeListItem>
                <CodeListItem CodedValue="Heart Rate, Mean" OrderNumber="4">
                    <Decode>
                        <TranslatedText xml:lang="en">Heart Rate, Mean</TranslatedText>
                    </Decode>
                </CodeListItem>
                <Alias Context="nci:ExtCodeID" Name="C67153"/>
            </CodeList>
            <CodeList OID="CL.C66770" Name="VSRESU" DataType="text" def:StandardOID="STD.3">
                <CodeListItem CodedValue="beats/min" OrderNumber="1">
                    <Decode>
                        <TranslatedText xml:lang="en">Beats per Minute</TranslatedText>
                    </Decode>
                    <Alias Context="nci:ExtCodeID" Name="C49673"/>
                </CodeListItem>
                <CodeListItem CodedValue="in" OrderNumber="2">
                    <Decode>
                        <TranslatedText xml:lang="en">Inch</TranslatedText>
                    </Decode>
                    <Alias Context="nci:ExtCodeID" Name="C48500"/>
                </CodeListItem>
                <CodeListItem CodedValue="LB" OrderNumber="3">
                    <Decode>
                        <TranslatedText xml:lang="en">Pound</TranslatedText>
                    </Decode>
                    <Alias Context="nci:ExtCodeID" Name="C48531"/>
                </CodeListItem>
                <Alias Context="nci:ExtCodeID" Name="C66770"/>
            </CodeList>
            <CodeList OID="CL.DX.DXTRT" Name="Codelist for DX DXTRT" DataType="text"
                def:IsNonStandard="Yes">
                <EnumeratedItem CodedValue="DANA Diabecare II" OrderNumber="1"/>
                <EnumeratedItem CodedValue="Deltec Cozmo" OrderNumber="2"/>
                <EnumeratedItem CodedValue="Disetronic D-Tron Plus" OrderNumber="3"/>
                <EnumeratedItem CodedValue="Disetronic H-Tron Plus" OrderNumber="4"/>
                <EnumeratedItem CodedValue="Disetronic Spirit" OrderNumber="5"/>
                <EnumeratedItem CodedValue="Insulet OmniPod Insulin Management System"
                    OrderNumber="6"/>
                <EnumeratedItem CodedValue="Medtronic 507" OrderNumber="7"/>
                <EnumeratedItem CodedValue="Medtronic 507C" OrderNumber="8"/>
                <EnumeratedItem CodedValue="Medtronic 508" OrderNumber="9"/>
                <EnumeratedItem CodedValue="Medtronic 511" OrderNumber="10"/>
                <EnumeratedItem CodedValue="Medtronic 535" OrderNumber="11"/>
                <EnumeratedItem CodedValue="Medtronic 551 (530G)" OrderNumber="12"/>
                <EnumeratedItem CodedValue="Medtronic 554" OrderNumber="13"/>
                <EnumeratedItem CodedValue="Medtronic 630G" OrderNumber="14"/>
                <EnumeratedItem CodedValue="Medtronic 640G" OrderNumber="15"/>
                <EnumeratedItem CodedValue="Medtronic 670G - Manual" OrderNumber="16"/>
                <EnumeratedItem CodedValue="Medtronic 670G - Auto" OrderNumber="17"/>
                <EnumeratedItem CodedValue="Medtronic 751 (530G)" OrderNumber="18"/>
                <EnumeratedItem CodedValue="Medtronic 754" OrderNumber="19"/>
                <EnumeratedItem CodedValue="Medtronic Paradigm 512" OrderNumber="20"/>
                <EnumeratedItem CodedValue="Medtronic Paradigm 515" OrderNumber="21"/>
                <EnumeratedItem CodedValue="Medtronic Paradigm 522" OrderNumber="22"/>
                <EnumeratedItem CodedValue="Medtronic Paradigm 523 (Revel)" OrderNumber="23"/>
                <EnumeratedItem CodedValue="Medtronic Paradigm 554 (Veo)" OrderNumber="24"/>
                <EnumeratedItem CodedValue="Medtronic Paradigm 712" OrderNumber="25"/>
                <EnumeratedItem CodedValue="Medtronic Paradigm 715" OrderNumber="26"/>
                <EnumeratedItem CodedValue="Medtronic Paradigm 722" OrderNumber="27"/>
                <EnumeratedItem CodedValue="Medtronic Paradigm 723 (Revel)" OrderNumber="28"/>
                <EnumeratedItem CodedValue="Medtronic Paradigm 754 (Veo)" OrderNumber="29"/>
                <EnumeratedItem CodedValue="Nipro Amigo" OrderNumber="30"/>
                <EnumeratedItem CodedValue="Roche Accu-Check Combo" OrderNumber="31"/>
                <EnumeratedItem CodedValue="Roche Accu-Chek Spirit Combo" OrderNumber="32"/>
                <EnumeratedItem CodedValue="Roche Insight" OrderNumber="33"/>
                <EnumeratedItem CodedValue="Tandem t:flex" OrderNumber="34"/>
                <EnumeratedItem CodedValue="Tandem t:slim" OrderNumber="35"/>
                <EnumeratedItem CodedValue="Tandem t:slim X2" OrderNumber="36"/>
                <EnumeratedItem CodedValue="Tandem t:slim X2 with Basal IQ" OrderNumber="37"/>
                <EnumeratedItem CodedValue="Tandem t:slim X2 with Control IQ" OrderNumber="38"/>
                <EnumeratedItem CodedValue="Other" OrderNumber="39"/>
            </CodeList>
            <CodeList OID="CL.FA.FAORRES.AGE" Name="Codelist for FA FAORRES where AGE"
                DataType="text" def:IsNonStandard="Yes">
                <EnumeratedItem CodedValue="&lt; 6 months" OrderNumber="1"/>
                <EnumeratedItem CodedValue="&gt;= 6 months to &lt; 1 year old" OrderNumber="2"/>
                <EnumeratedItem CodedValue="1 year old" OrderNumber="3"/>
                <EnumeratedItem CodedValue="2" OrderNumber="4"/>
                <EnumeratedItem CodedValue="3" OrderNumber="5"/>
                <EnumeratedItem CodedValue="4" OrderNumber="6"/>
                <EnumeratedItem CodedValue="5" OrderNumber="7"/>
                <EnumeratedItem CodedValue="6" OrderNumber="8"/>
                <EnumeratedItem CodedValue="7" OrderNumber="9"/>
                <EnumeratedItem CodedValue="8" OrderNumber="10"/>
                <EnumeratedItem CodedValue="9" OrderNumber="11"/>
                <EnumeratedItem CodedValue="10" OrderNumber="12"/>
                <EnumeratedItem CodedValue="11" OrderNumber="13"/>
                <EnumeratedItem CodedValue="12" OrderNumber="14"/>
                <EnumeratedItem CodedValue="13" OrderNumber="15"/>
                <EnumeratedItem CodedValue="14" OrderNumber="16"/>
                <EnumeratedItem CodedValue="15" OrderNumber="17"/>
                <EnumeratedItem CodedValue="16" OrderNumber="18"/>
                <EnumeratedItem CodedValue="17" OrderNumber="19"/>
                <EnumeratedItem CodedValue="18" OrderNumber="20"/>
                <EnumeratedItem CodedValue="19" OrderNumber="21"/>
                <EnumeratedItem CodedValue="20" OrderNumber="22"/>
                <EnumeratedItem CodedValue="21" OrderNumber="23"/>
                <EnumeratedItem CodedValue="22" OrderNumber="24"/>
                <EnumeratedItem CodedValue="23" OrderNumber="25"/>
                <EnumeratedItem CodedValue="24" OrderNumber="26"/>
                <EnumeratedItem CodedValue="25" OrderNumber="27"/>
                <EnumeratedItem CodedValue="26" OrderNumber="28"/>
                <EnumeratedItem CodedValue="27" OrderNumber="29"/>
                <EnumeratedItem CodedValue="28" OrderNumber="30"/>
                <EnumeratedItem CodedValue="29" OrderNumber="31"/>
                <EnumeratedItem CodedValue="30" OrderNumber="32"/>
                <EnumeratedItem CodedValue="31" OrderNumber="33"/>
                <EnumeratedItem CodedValue="32" OrderNumber="34"/>
                <EnumeratedItem CodedValue="33" OrderNumber="35"/>
                <EnumeratedItem CodedValue="34" OrderNumber="36"/>
                <EnumeratedItem CodedValue="35" OrderNumber="37"/>
                <EnumeratedItem CodedValue="36" OrderNumber="38"/>
                <EnumeratedItem CodedValue="37" OrderNumber="39"/>
                <EnumeratedItem CodedValue="38" OrderNumber="40"/>
                <EnumeratedItem CodedValue="39" OrderNumber="41"/>
                <EnumeratedItem CodedValue="40" OrderNumber="42"/>
                <EnumeratedItem CodedValue="41" OrderNumber="43"/>
                <EnumeratedItem CodedValue="42" OrderNumber="44"/>
                <EnumeratedItem CodedValue="43" OrderNumber="45"/>
                <EnumeratedItem CodedValue="44" OrderNumber="46"/>
                <EnumeratedItem CodedValue="45" OrderNumber="47"/>
                <EnumeratedItem CodedValue="46" OrderNumber="48"/>
                <EnumeratedItem CodedValue="47" OrderNumber="49"/>
                <EnumeratedItem CodedValue="48" OrderNumber="50"/>
                <EnumeratedItem CodedValue="49" OrderNumber="51"/>
                <EnumeratedItem CodedValue="50" OrderNumber="52"/>
                <EnumeratedItem CodedValue="51" OrderNumber="53"/>
                <EnumeratedItem CodedValue="52" OrderNumber="54"/>
                <EnumeratedItem CodedValue="53" OrderNumber="55"/>
                <EnumeratedItem CodedValue="54" OrderNumber="56"/>
                <EnumeratedItem CodedValue="55" OrderNumber="57"/>
                <EnumeratedItem CodedValue="56" OrderNumber="58"/>
                <EnumeratedItem CodedValue="57" OrderNumber="59"/>
                <EnumeratedItem CodedValue="58" OrderNumber="60"/>
                <EnumeratedItem CodedValue="59" OrderNumber="61"/>
                <EnumeratedItem CodedValue="60" OrderNumber="62"/>
                <EnumeratedItem CodedValue="61" OrderNumber="63"/>
                <EnumeratedItem CodedValue="62" OrderNumber="64"/>
                <EnumeratedItem CodedValue="63" OrderNumber="65"/>
                <EnumeratedItem CodedValue="64" OrderNumber="66"/>
                <EnumeratedItem CodedValue="65" OrderNumber="67"/>
                <EnumeratedItem CodedValue="66" OrderNumber="68"/>
                <EnumeratedItem CodedValue="67" OrderNumber="69"/>
                <EnumeratedItem CodedValue="68" OrderNumber="70"/>
                <EnumeratedItem CodedValue="69" OrderNumber="71"/>
                <EnumeratedItem CodedValue="70" OrderNumber="72"/>
            </CodeList>
            <CodeList OID="CL.FA.FAORRES.SICKTODY" Name="Codelist for FA FAORRES where SICKTODY"
                DataType="text" def:IsNonStandard="Yes">
                <EnumeratedItem CodedValue="Not sick" OrderNumber="1"/>
                <EnumeratedItem CodedValue="Mildly Sick" OrderNumber="2"/>
                <EnumeratedItem CodedValue="Extremely Sick" OrderNumber="3"/>
            </CodeList>
            <CodeList OID="CL.FA.FAORRES.INSCHFL" Name="Codelist for FA FAORRES where INSCHFL"
                DataType="text" def:IsNonStandard="Yes">
                <EnumeratedItem CodedValue="Yes" OrderNumber="1"/>
                <EnumeratedItem CodedValue="No" OrderNumber="2"/>
            </CodeList>
            <CodeList OID="CL.FA.FAORRES.STRESTDY" Name="Codelist for FA FAORRES where STRESTDY"
                DataType="text" def:IsNonStandard="Yes">
                <EnumeratedItem CodedValue="Less Stressed" OrderNumber="1"/>
                <EnumeratedItem CodedValue="Typical" OrderNumber="2"/>
                <EnumeratedItem CodedValue="More Stressed" OrderNumber="3"/>
            </CodeList>
            <CodeList OID="CL.FA.FAORRES.SLEEPQLT" Name="Codelist for FA FAORRES where SLEEPQLT"
                DataType="text" def:IsNonStandard="Yes">
                <EnumeratedItem CodedValue="Very Bad" OrderNumber="1"/>
                <EnumeratedItem CodedValue="Fairly Bad" OrderNumber="2"/>
                <EnumeratedItem CodedValue="Fairly Good" OrderNumber="3"/>
                <EnumeratedItem CodedValue="Very Good" OrderNumber="4"/>
            </CodeList>
            <CodeList OID="CL.FADX.FAORRES.INSULIN-PUMP-OR-CLOSED-LOOP"
                Name="Codelist for FADX FAOBJ where INSULIN-PUMP-OR-CLOSED-LOOP" DataType="text"
                def:IsNonStandard="Yes">
